Timestamp,Acc_X,Acc_Y,Acc_Z,Gyro_X,Gyro_Y,Gyro_Z,Yaw,Pitch,Roll
09:57:18.336248,0.8147561,4.8855457,8.390432,-0.0077883024,-0.021532366,-0.047798797,30.79505534478305,-30.094428200101483,-5.546338575406141
09:57:18.337195,0.7860422,4.8616176,8.364112,-0.013896775,-0.020310672,-0.04734066,30.393259221573295,-30.057859367285232,-5.368772440006027
09:57:18.388896,0.7788638,4.854439,8.361719,-0.02015796,-0.019088976,-0.044439137,29.893480619625123,-30.030183440768344,-5.32153912057445
09:57:18.390219,0.7956135,4.828118,8.371888,-0.02687728,-0.01343864,-0.040774055,29.691580227759545,-29.860962088986692,-5.428739366484623
09:57:18.391357,0.8045866,4.8263235,8.42453,-0.03191677,-0.009009997,-0.038483378,30.275663854633184,-29.695866171463727,-5.4554991938790875
09:57:18.392424,0.8033902,4.816752,8.479566,-0.033138465,-0.0022906773,-0.03787253,30.58797425443202,-29.488587005626766,-5.41229056341594
09:57:18.393560,0.79800636,4.7934217,8.520244,-0.032527618,-0.0022906773,-0.03603999,30.406260486658415,-29.254956969971893,-5.350715554274629
09:57:18.394687,0.8021938,4.7982078,8.560922,-0.030084228,-0.006566608,-0.035429142,30.16859722429865,-29.162974812419332,-5.3532205261527315
09:57:18.403302,0.79501534,4.796413,8.608778,-0.027029991,-0.0151184695,-0.035887275,29.967762341943594,-29.02120740600655,-5.276264357887374
09:57:18.411650,0.77347994,4.8059845,8.608179,-0.019088976,-0.016951011,-0.035276428,30.39955324089346,-29.076866617552984,-5.134470484491556
09:57:18.422467,0.75194454,4.8035913,8.584251,-0.009162709,-0.017561859,-0.031458635,30.370361012380826,-29.137361603031785,-5.006092810172935
09:57:18.433018,0.7501499,4.796413,8.541181,-0.004428643,-0.020005248,-0.028251685,30.42759458253095,-29.22307706202086,-5.019261841779543
09:57:18.442060,0.77706915,4.8101716,8.479566,-0.003206948,-0.021226943,-0.02519745,30.963665394633985,-29.46207562636336,-5.235972645086646
09:57:18.454950,0.80877405,4.802395,8.450851,-0.0062611843,-0.016187452,-0.022143213,30.697622696272816,-29.496356345807655,-5.466743392800221
09:57:18.465642,0.8009974,4.8006005,8.477173,-0.008704574,-0.009468133,-0.022906773,30.36397820060145,-29.41370422666133,-5.397779826524248
09:57:18.474790,0.7818548,4.8006005,8.510672,-0.009926268,-0.022295926,-0.022906773,31.002532586105943,-29.323053955996922,-5.248891094128079
09:57:18.484822,0.779462,4.814957,8.505288,-0.009315421,-0.02107423,-0.023364907,30.901882918496636,-29.412167434098077,-5.236210421047127
09:57:18.494913,0.7507481,4.8532424,8.516654,-0.00503949,-0.014354911,-0.018478129,31.16416559771971,-29.581494653811863,-5.0376354775337004
09:57:18.504234,0.7435696,4.872385,8.519047,0.0010689828,-0.009468133,-0.010537115,30.74558428462465,-29.67336411324312,-4.98831638908433
09:57:18.513922,0.7579266,4.862814,8.514261,0.008246438,-0.00503949,-0.0012216945,30.689289865485403,-29.635022846337254,-5.086974202776934
09:57:18.523407,0.77706915,4.846064,8.495717,0.012522369,-0.002443389,0.0061084726,30.640286673285146,-29.598372051250966,-5.226073566545182
09:57:18.534485,0.8033902,4.8047876,8.477173,0.013133216,-0.0012216945,0.007330167,30.2099266989664,-29.43442702060315,-5.413809426732622
09:57:18.543514,0.82313097,4.8095737,8.45803,0.009926268,-0.005497625,0.007330167,30.40411580725903,-29.50839113912522,-5.55849033571324
09:57:18.554630,0.82313097,4.776074,8.422736,0.0056503373,-0.009773556,0.004275931,30.675076241822605,-29.438508058632234,-5.581635285489474
09:57:18.565179,0.849452,4.790431,8.422736,-0.0022906773,-0.016492875,0.0022906773,30.37720486192918,-29.504627704892542,-5.758936751059251
09:57:18.574964,0.86919284,4.8041897,8.423334,-0.009162709,-0.021379653,3.0542363E-4,29.835929445678595,-29.56756448299962,-5.89142491859775
09:57:18.586161,0.8279166,4.807181,8.444271,-0.010231691,-0.01343864,-0.0015271181,29.70412045507569,-29.534438065525062,-5.5996546051804374
09:57:18.595043,0.78424764,4.7934217,8.493922,-0.010842538,-0.007941014,9.162709E-4,30.166462790183022,-29.33360659826459,-5.275189029979921
09:57:18.604641,0.80817586,4.7982078,8.498708,-0.009009997,-0.012216945,0.00335966,30.86964784070876,-29.33795742876589,-5.432148484654106
09:57:18.615136,0.8344969,4.7784667,8.4705925,-0.007941014,-0.010842538,0.0045813546,30.67060929810542,-29.310134653181844,-5.626449437294397
09:57:18.625014,0.87338024,4.7832522,8.466405,-0.0071774554,-0.0029015245,0.0051922016,29.993799023059683,-29.33538586254338,-5.889704137813729
09:57:18.636341,0.8925229,4.792824,8.461619,-0.005955761,0.002443389,0.0021379655,30.3350625947502,-29.392315489275436,-6.021234798207957
09:57:18.649050,0.8781659,4.7952166,8.468798,-0.0027488125,0.010384403,-0.0013744063,30.59773117966138,-29.3882925078543,-5.920086526789238
09:57:18.658684,0.8709874,4.792824,8.468798,-0.0070247436,0.0029015245,-0.006413896,31.036557173456362,-29.378187242977265,-5.872033157770438
09:57:18.667159,0.86081797,4.790431,8.480762,-0.011300675,-0.006872032,-0.01007898,30.795495891984515,-29.334730164383057,-5.795811234840857
09:57:18.676827,0.86081797,4.790431,8.480762,-0.011911522,-0.009315421,-0.011300675,30.382665598170604,-29.334730164383057,-5.795811234840857
09:57:18.687732,0.81834537,4.8215375,8.469994,-0.011911522,-0.0025961008,-0.008246438,30.896432427538965,-29.536357348681836,-5.518616971999175
09:57:18.696229,0.8153543,4.802395,8.479566,-0.008857286,0.004123219,-0.006413896,31.025215644339553,-29.41208547182804,-5.492401425304196
09:57:18.705594,0.8327023,4.807181,8.451449,-0.005803049,0.009773556,-0.0051922016,30.716822358029724,-29.5124038752626,-5.627062446772406
09:57:18.716650,0.8805587,4.7778687,8.423334,-0.0070247436,0.016492875,-0.0051922016,30.34893812404908,-29.429259982496035,-5.967911084470845
09:57:18.726228,0.89431745,4.759324,8.4502535,-0.013744064,0.018783553,-0.009009997,30.29873623364949,-29.252699592451204,-6.041307443518156
09:57:18.736381,0.86261255,4.7718863,8.52144,-0.016645588,0.01267508,-0.0151184695,30.081225444435848,-29.12387197942101,-5.780275969573663
09:57:18.747565,0.8578269,4.764708,8.5525465,-0.016645588,0.00335966,-0.018019995,30.515065400136717,-29.00085344227991,-5.727654057773769
09:57:18.757540,0.8500503,4.7653065,8.586046,-0.011147963,3.0542363E-4,-0.019852536,30.50096788968981,-28.912122454772273,-5.654068587863813
09:57:18.767921,0.8500503,4.782056,8.599805,-0.0018325418,-0.0035123718,-0.021532366,30.169181205472686,-28.958779476992632,-5.645081339576546
09:57:18.776970,0.8356933,4.788636,8.554341,0.004275931,-0.0047340663,-0.023975754,31.066111401995006,-29.123834413380575,-5.579651115535586
09:57:18.787821,0.8129615,4.7934217,8.505886,0.007941014,0.0013744063,-0.021379653,31.316127061468737,-29.291785349976603,-5.459537543225857
09:57:18.798220,0.7962117,4.790431,8.462815,0.01099525,0.012369657,-0.018325418,31.039282418935194,-29.404200018431258,-5.374768919210475
09:57:18.808090,0.8135597,4.7976093,8.425129,0.01099525,0.014813046,-0.016492875,30.405116429972438,-29.54473799079344,-5.5155783915921655
09:57:18.820523,0.8333005,4.78744,8.408379,0.004275931,0.014965758,-0.017256435,30.674454694608134,-29.535448933522222,-5.659736364214455
09:57:18.830082,0.74835527,4.8101716,8.505288,0.0,0.018630842,-0.016645588,31.35306813959475,-29.395785225373803,-5.02833788252602
09:57:18.839386,0.74835527,4.8101716,8.505288,0.0018325418,0.016798299,-0.012980504,31.302924305803103,-29.395785225373803,-5.02833788252602
09:57:18.849830,0.6975078,4.8442693,8.5423765,0.0010689828,0.008399149,-0.0062611843,31.08844270548636,-29.47538424996113,-4.667997592483657
09:57:18.858873,0.71665037,4.8418765,8.542975,0.0027488125,0.004275931,-1.5271181E-4,30.879616501802392,-29.457031531661308,-4.795182545018465
09:57:18.868630,0.71665037,4.8418765,8.542975,0.004428643,-6.1084726E-4,0.004123219,30.99470860441169,-29.457031531661308,-4.795182545018465
09:57:18.877798,0.7292127,4.8364925,8.483154,0.0062611843,-0.00671932,0.009162709,31.23161713086817,-29.598057862549144,-4.913073317640178
09:57:18.888374,0.7704889,4.8119664,8.452646,0.0030542363,-0.006566608,0.0132859275,31.10133468754476,-29.55040704780455,-5.208321478005495
09:57:18.899425,0.79441714,4.800002,8.465208,-6.1084726E-4,-0.0047340663,0.0151184695,30.648486315383746,-29.446752096960438,-5.361218677670816
09:57:18.908838,0.8279166,4.802395,8.458628,-0.0018325418,-0.005803049,0.016340164,30.443833357282653,-29.46865651362867,-5.590210587992425
09:57:18.920406,0.8560323,4.7856455,8.480762,-0.005497625,-0.003970507,0.0151184695,30.516107003985145,-29.31166120046134,-5.763807529711116
09:57:18.929513,0.8530413,4.7742796,8.509476,-0.004886778,-0.0010689828,0.011453386,31.49201467788032,-29.172721492364943,-5.7245505905696445
09:57:18.940451,0.8362915,4.779065,8.537591,-0.0010689828,1.5271181E-4,0.009620844,31.835883966739196,-29.122229318925623,-5.594505496319894
09:57:18.950587,0.8386843,4.7766724,8.530413,0.004428643,-0.0012216945,0.0077883024,31.095457309763965,-29.12965714964801,-5.615101504875245
09:57:18.960461,0.8602197,4.7742796,8.523832,0.008704574,-0.0012216945,0.007330167,30.93533376995677,-29.130002074201098,-5.762742447087417
09:57:18.970344,0.87218386,4.7712884,8.514261,0.008246438,-0.004275931,0.0030542363,30.83521344200814,-29.138375886123534,-5.848863448558461
09:57:18.981599,0.84406817,4.790431,8.492127,0.008857286,-0.006872032,-0.0,30.838368989404685,-29.3070918039066,-5.6762244408708655
09:57:18.990913,0.81595254,4.800002,8.4604225,0.008246438,-0.0056503373,-0.0012216945,29.830779483044406,-29.454613644695122,-5.508766558555547
09:57:19.002036,0.8111669,4.802395,8.436495,0.006413896,-0.0,0.0018325418,29.492288968156913,-29.537081348733857,-5.492092359244253
09:57:19.012077,0.8039884,4.7952166,8.4604225,0.005803049,0.007330167,0.00167983,30.537745043275745,-29.433436643173497,-5.428478965522516
09:57:19.024435,0.8009974,4.7838507,8.491529,0.006413896,0.005497625,0.004123219,30.457681565824856,-29.287089594922218,-5.388707627759179
09:57:19.033213,0.8488538,4.7832522,8.5016985,0.006413896,0.004886778,0.0035123718,30.241810022012018,-29.241825931292546,-5.701811610162203
09:57:19.043603,0.8560323,4.7976093,8.513663,0.005803049,0.0035123718,-1.5271181E-4,30.18688505580136,-29.278985575472,-5.741681985668506
09:57:19.052079,0.8321041,4.800002,8.506484,0.0071774554,4.5813544E-4,-0.004886778,30.650176787203325,-29.318358200942537,-5.586897519358146
09:57:19.061329,0.8009974,4.8215375,8.501101,0.008246438,-0.0025961008,-0.0036650836,30.990747094693084,-29.451908889783798,-5.382676570722057
09:57:19.070694,0.7848458,4.843073,8.478967,0.01007898,-0.003206948,-6.1084726E-4,30.763540851952612,-29.629285487434444,-5.288448134706208
09:57:19.083380,0.7848458,4.843073,8.440681,0.012522369,0.00167983,0.004275931,30.142133656359437,-29.739890155759046,-5.312299155287892
09:57:19.091049,0.79501534,4.8358946,8.422137,0.012522369,0.007941014,0.009773556,30.67356335492145,-29.754325760569866,-5.3925086280322905
09:57:19.101287,0.82612205,4.8065825,8.41795,0.0038177953,0.0061084726,0.008399149,30.867783199065347,-29.607927485899815,-5.604953978202722
09:57:19.112452,0.81595254,4.7880383,8.458628,-0.0053449133,-0.005497625,0.0053449133,30.779281022894907,-29.398578772744337,-5.509928117601272
09:57:19.122662,0.7968099,4.814359,8.455637,-0.0047340663,-0.007330167,0.0053449133,31.02699149352376,-29.546971462652035,-5.383323304259093
09:57:19.133082,0.8039884,4.8191447,8.431708,-0.0053449133,-0.0010689828,0.008246438,31.086328761938244,-29.63855405413815,-5.44685473571079
09:57:19.142375,0.82731843,4.802395,8.4682,-0.006566608,0.006872032,0.008246438,30.57514374407615,-29.441346002232372,-5.579922615555094
09:57:19.153431,0.81236327,4.795815,8.517851,-0.008399149,0.00503949,0.008857286,29.75484827004137,-29.270099499361812,-5.447927075410481
09:57:19.164454,0.8315059,4.7934217,8.539984,-0.005497625,1.5271181E-4,0.01007898,29.87632318443005,-29.18990283322211,-5.561144291092613
09:57:19.173089,0.8650054,4.781458,8.545368,-0.004123219,-0.0022906773,0.008399149,30.918022655505375,-29.104388864813547,-5.780080028521848
09:57:19.182778,0.84825563,4.7838507,8.562118,1.5271181E-4,-0.0018325418,0.0035123718,31.51471481158686,-29.074100390939126,-5.657875137665626
09:57:19.194556,0.8147561,4.8029933,8.5322075,0.0051922016,-0.002443389,0.00167983,30.99689084985151,-29.265219329199837,-5.4547389084471005
09:57:19.205174,0.82731843,4.807181,8.505886,0.008857286,-0.008551862,0.002443389,30.544107364487612,-29.357963052844855,-5.555354851997381
09:57:19.217164,0.8279166,4.802395,8.439486,0.0076355906,-0.011147963,0.0018325418,30.475050736884196,-29.523759064757748,-5.60280972569016
09:57:19.224118,0.8279166,4.802395,8.439486,0.0076355906,-0.011147963,0.0018325418,30.2411987200813,-29.523759064757748,-5.60280972569016
09:57:19.234542,0.8141579,4.811368,8.386245,-4.5813544E-4,-0.0036650836,0.00167983,30.252642702035658,-29.727954400184448,-5.545042547011131
09:57:19.243677,0.8237292,4.801797,8.396415,-0.0053449133,0.002443389,0.00335966,29.79048136694133,-29.64654879056165,-5.603065430897213
09:57:19.253782,0.83748794,4.802395,8.451449,-0.009620844,0.008093726,0.0027488125,29.764837421702516,-29.48658576019995,-5.659192937288616
09:57:19.265682,0.83389866,4.7934217,8.513663,-0.010842538,0.007330167,9.162709E-4,30.79525342026898,-29.26389085740627,-5.5941785010133795
09:57:19.273742,0.81954175,4.791029,8.525627,-0.010842538,0.0030542363,-3.0542363E-4,31.031062286269087,-29.22167687324101,-5.490792488867836
09:57:19.285681,0.84347,4.7838507,8.5525465,-0.010231691,-0.0018325418,-0.0021379655,30.70977360280627,-29.102394449575904,-5.632415607534404
09:57:19.294861,0.8859426,4.7766724,8.569296,-0.006413896,-0.0056503373,-0.003970507,30.896125069026315,-29.00669325402027,-5.902593131664367
09:57:19.304018,0.87936234,4.791029,8.531011,3.0542363E-4,-0.009926268,-0.009315421,30.518862985315245,-29.189540833196098,-5.885168465318018
09:57:19.314940,0.8632108,4.807181,8.472985,0.0045813546,-0.008857286,-0.008551862,30.55833464852875,-29.441783134339254,-5.817109045333426
09:57:19.325197,0.88295156,4.8137608,8.430512,0.0053449133,-0.00503949,-0.007941014,31.243952452509212,-29.59166139039143,-5.978952512150994
09:57:19.335096,0.89072824,4.8065825,8.413763,0.0035123718,-9.162709E-4,-0.01175881,30.724120415157884,-29.60097435332474,-6.043143910631243
09:57:19.345181,0.8428718,4.801797,8.403593,0.0022906773,0.0045813546,-0.016034741,30.809381666567152,-29.620197920743742,-5.727553739370334
09:57:19.355311,0.8285148,4.808975,8.394022,-0.0019852535,0.011300675,-0.013591352,30.79453625040613,-29.688947189834504,-5.637004640883006
09:57:19.365192,0.8207382,4.8119664,8.42453,-0.0062611843,0.017561859,-0.010689827,30.147495354857895,-29.61795761869598,-5.5643348432086555
09:57:19.375637,0.80817586,4.795815,8.484351,-0.009315421,0.020005248,-0.011911522,30.61351574683328,-29.36676375159042,-5.441284716442644
09:57:19.387476,0.75972116,4.8083773,8.550752,-0.009315421,0.016340164,-0.011911522,30.733918321522264,-29.254383234081615,-5.077309911988189
09:57:19.395752,0.718445,4.8251266,8.590832,-0.01007898,0.009009997,-0.0076355906,30.654787164893083,-29.236006610119695,-4.78048013594319
09:57:19.406962,0.70648086,4.813163,8.595019,-0.0071774554,-0.004886778,-0.0038177953,31.019826625084413,-29.16641722776102,-4.698951582915332
09:57:19.415375,0.70648086,4.8137608,8.595019,-0.0071774554,-0.004886778,-0.0038177953,30.95031920499578,-29.169449831752505,-4.698951156028509
09:57:19.425114,0.70648086,4.8137608,8.595019,-0.0071774554,-0.004886778,-0.0038177953,30.89739889930652,-29.169449831752505,-4.698951156028509
09:57:19.435284,0.70648086,4.8137608,8.595019,-0.0071774554,-0.004886778,-0.0038177953,31.16246146552179,-29.169449831752505,-4.698951156028509
09:57:19.446671,0.86560357,4.7832522,8.492725,-0.0071774554,-0.004886778,-0.0038177953,30.292189497330032,-29.262555555423535,-5.81965798655431
09:57:19.456220,0.8895318,4.7784667,8.478369,0.0025961008,-0.007330167,0.0071774554,30.339737859237076,-29.271947065532302,-5.9894347180928476
09:57:19.466567,0.89431745,4.7688956,8.483752,0.0038177953,-0.002443389,0.004886778,30.308947366458657,-29.206220155149268,-6.017628885213014
09:57:19.476753,0.87996054,4.7688956,8.48794,0.0027488125,-0.0012216945,-0.0013744063,29.7323154759695,-29.19858058856261,-5.918816111603617
09:57:19.487327,0.8751749,4.7688956,8.48794,3.0542363E-4,-0.0025961008,-0.00503949,29.98686638105212,-29.199984192437046,-5.886852960722073
09:57:19.497247,0.86560357,4.7832522,8.478369,-0.0021379655,-0.0038177953,-0.009926268,30.419227600797683,-29.30348204893025,-5.829444793861292
09:57:19.507684,0.82731843,4.7832522,8.477771,-7.635591E-4,-0.0027488125,-0.012369657,30.311553083627018,-29.316111068705602,-5.573662747180777
09:57:19.518643,0.779462,4.831707,8.4813595,4.5813544E-4,-3.0542363E-4,-0.012369657,29.87850542986987,-29.566010614963446,-5.2509013041781785
09:57:19.528062,0.74596244,4.8412786,8.514261,0.003970507,0.0022906773,-0.0062611843,30.701556885234744,-29.52887829154067,-5.007086175810349
09:57:19.538052,0.74536425,4.8562336,8.533403,0.006413896,0.002443389,-0.0,31.131759765202585,-29.550055293062297,-4.991924863400213
09:57:19.548475,0.7316055,4.846662,8.523832,0.01007898,-0.002443389,0.004886778,30.572835140136686,-29.532351442733624,-4.905707385507142
09:57:19.558588,0.72741807,4.8508496,8.47119,0.009926268,-0.005955761,0.01099525,30.435886432183345,-29.70602949294871,-4.907928904534689
09:57:19.568176,0.7710871,4.8358946,8.414361,0.004886778,-0.010842538,0.015882028,30.52537557068885,-29.783415536244952,-5.235927821970217
09:57:19.579225,0.84825563,4.78744,8.3581295,-0.011147963,-0.013133216,0.016798299,30.449919055833135,-29.677134377664967,-5.795032166388652
09:57:19.588877,0.87637126,4.768297,8.387442,-0.020921519,-0.009468133,0.012980504,29.734535287449756,-29.484956760082905,-5.964969407372685
09:57:19.598162,0.90448695,4.749753,8.455039,-0.025808297,-0.005803049,0.009315421,29.708819625224656,-29.186801927338923,-6.1060563561894075
09:57:19.607856,0.9128618,4.7401814,8.527422,-0.02687728,-0.0045813546,0.0056503373,30.366498540405185,-28.93018147493779,-6.110252226773911
09:57:19.618417,0.92662054,4.7216372,8.584849,-0.0219905,-0.0022906773,7.635591E-4,30.586136933545284,-28.670736739314854,-6.16046863132549
09:57:19.627967,0.9164511,4.7359943,8.623135,-0.014507622,-0.002443389,-0.006413896,30.649107862598218,-28.640890520189192,-6.066519379291965
09:57:19.638340,0.89730847,4.750351,8.617751,-0.005803049,-0.006413896,-0.013591352,31.102512895176588,-28.73439751747396,-5.944403707781777
09:57:19.650522,0.88354975,4.7742796,8.583653,0.0029015245,-0.006413896,-0.014813046,31.64690970787787,-28.954995552192443,-5.8769854718055194
09:57:19.658850,0.85064846,4.779065,8.563912,0.011606098,-0.00167983,-0.015882028,31.067760892679566,-29.04403389821273,-5.672549799097399
09:57:19.669464,0.81236327,4.8029933,8.525029,0.017714571,-4.5813544E-4,-0.015729317,30.63157135190421,-29.28624948165431,-5.443367497252675
09:57:19.681218,0.80877405,4.807181,8.467601,0.02015796,-0.004123219,-0.0132859275,30.616753256499866,-29.47264192900937,-5.455995236367559
09:57:19.690528,0.799801,4.8215375,8.429316,0.017714571,-0.003970507,-0.012064233,29.61404392030156,-29.65886703672977,-5.42018412766236
09:57:19.699864,0.78065836,4.8358946,8.414361,0.010231691,-0.0027488125,-0.01099525,30.102293162930753,-29.780847385117028,-5.30055122991547
09:57:19.710323,0.76630145,4.8358946,8.409575,0.0027488125,-0.0062611843,-0.008704574,30.612494633552362,-29.798629782621155,-5.206555447218224
09:57:19.720390,0.7615158,4.84068,8.418549,-0.0021379655,-0.0062611843,-0.00503949,30.823386969460262,-29.79819606560886,-5.168731567141986
09:57:19.731854,0.76630145,4.8358946,8.433503,-0.005955761,-0.002443389,-1.5271181E-4,31.00460554851904,-29.729050645546234,-5.191863710313527
09:57:19.741332,0.79920274,4.8119664,8.467601,-0.0071774554,-0.0022906773,0.005803049,30.93391992079858,-29.499679232838865,-5.3918098143028335
09:57:19.751432,0.8177471,4.802395,8.496315,-0.0071774554,-0.0010689828,0.0070247436,31.070718364590178,-29.363529657018418,-5.497628654453372
09:57:19.761872,0.8177471,4.7976093,8.496315,-0.0061084726,-0.005955761,0.0071774554,31.45927075099928,-29.339121976019378,-5.497627800679726
09:57:19.771447,0.86560357,4.76411,8.5118685,-0.005955761,-0.0047340663,0.005955761,31.031851173118223,-29.11037894071565,-5.80665928279013
09:57:19.780435,0.87996054,4.7545385,8.492725,-0.0047340663,-0.0036650836,0.0022906773,30.719441735576424,-29.111488846455778,-5.915503896742983
09:57:19.791427,0.8662018,4.7449675,8.454441,-0.005955761,-0.002443389,-1.5271181E-4,30.195040301670353,-29.175364775573737,-5.849841446270243
09:57:19.800678,0.8560323,4.7449675,8.464012,-0.008399149,0.0012216945,-0.0027488125,30.59182306602932,-29.15101515118264,-5.775136679110052
09:57:19.810907,0.86081797,4.759324,8.507083,-0.010689827,-0.0,-0.006413896,31.002040812485703,-29.100837166445142,-5.778000662806402
09:57:19.821115,0.8315059,4.779065,8.530413,-0.010689827,-0.0038177953,-0.008857286,31.214948054198754,-29.143850282743298,-5.567343968424869
09:57:19.832189,0.79800636,4.788636,8.539386,-0.008246438,-0.0038177953,-0.008857286,31.416988464942317,-29.176276605827933,-5.3387904708706095
09:57:19.842417,0.7932207,4.7982078,8.558528,-9.162709E-4,0.0010689828,-0.0062611843,31.07362461008202,-29.172096530055885,-5.295154953584337
09:57:19.851871,0.79800636,4.8029933,8.5681,0.003970507,-1.5271181E-4,-0.0025961008,30.021652534494997,-29.168124775053524,-5.321001243177312
09:57:19.862303,0.8033902,4.807779,8.525029,0.0076355906,-0.007482879,-0.0012216945,30.277566062317035,-29.313020408106173,-5.383596938712716
09:57:19.873224,0.8135597,4.816752,8.453244,0.0076355906,-0.012369657,-0.0012216945,31.03822715470843,-29.56148561463831,-5.497346482263286
09:57:19.882677,0.80937225,4.816752,8.429316,0.0038177953,-0.009773556,0.0010689828,31.54322743627708,-29.631761431008574,-5.484654283238109
09:57:19.892838,0.8141579,4.8209395,8.400602,-0.0010689828,-0.008551862,0.0022906773,30.909146824678942,-29.735177325231735,-5.535624143032507
09:57:19.903501,0.81954175,4.8065825,8.381459,-0.007330167,-0.009620844,0.0045813546,30.25854398547855,-29.715823984218506,-5.584646545139804
09:57:19.915776,0.8380861,4.7970114,8.396415,-0.01343864,-0.0022906773,0.005803049,30.69383194128346,-29.61787224133135,-5.700084852962659
09:57:19.923868,0.85184485,4.7832522,8.463413,-0.018325418,0.0038177953,0.0056503373,31.04407379663796,-29.350227863609817,-5.747479535613377
09:57:19.933903,0.8602197,4.7934217,8.525627,-0.017103724,0.0038177953,0.004428643,31.395872935123222,-29.222499911035992,-5.761537772472556
09:57:19.944476,0.8554341,4.779065,8.559127,-0.010842538,-0.005955761,0.00335966,31.15906344640971,-29.05615406889492,-5.707421329904899
09:57:19.953950,0.8554341,4.7694936,8.540583,-0.0071774554,-0.007330167,9.162709E-4,30.704599734509987,-29.05962722008787,-5.7197318921102
09:57:19.962835,0.8554341,4.779065,8.525627,-0.0047340663,-0.007330167,-0.0013744063,30.486392266001005,-29.150697547386237,-5.729698418769718
09:57:19.973516,0.84167534,4.7784667,8.496913,-0.0022906773,-0.009773556,-0.0025961008,30.72542839638394,-29.233028647641568,-5.657070456004034
09:57:19.983361,0.8422736,4.7832522,8.458628,-0.0022906773,-0.009773556,-0.0013744063,31.208978468864164,-29.366681789320378,-5.68652095104466
09:57:19.992985,0.8422736,4.7832522,8.4682,-0.0022906773,-0.004886778,-0.0013744063,31.202377091031344,-29.33926882508653,-5.680135151057521
09:57:20.004987,0.8321041,4.7832522,8.487342,-9.162709E-4,-0.0,-0.0013744063,30.710965470816436,-29.287441349664476,-5.599418109880426
09:57:20.014767,0.83688974,4.7784667,8.5016985,-0.0021379655,0.0012216945,-1.5271181E-4,29.933143528135385,-29.22075821279764,-5.62196627187793
09:57:20.024861,0.85064846,4.7694936,8.526225,-0.0022906773,0.0036650836,0.0010689828,30.24421424859986,-29.10151677026756,-5.697458645226789
09:57:20.033765,0.82672024,4.7742796,8.549556,0.0015271181,0.0036650836,-1.5271181E-4,30.9927483401199,-29.06669305078425,-5.523184234119798
09:57:20.044972,0.8171489,4.7742796,8.544769,0.003970507,0.0012216945,-1.5271181E-4,31.295113984487195,-29.08279180665797,-5.462667904299838
09:57:20.055725,0.84107715,4.7599225,8.554341,0.0076355906,-0.0,0.0012216945,30.753087247427906,-28.976076931065688,-5.615368736026521
09:57:20.065080,0.8362915,4.7838507,8.554341,0.008857286,-0.00503949,-0.0,30.23693326694463,-29.099317449354814,-5.583620309217009
09:57:20.075343,0.80757767,4.7742796,8.520244,0.01007898,-0.013591352,-0.0036650836,30.530228420094147,-29.15475467975322,-5.414513363103956
09:57:20.085810,0.79860455,4.792824,8.477173,0.01007898,-0.014813046,-0.002443389,30.72853271736171,-29.374625299325103,-5.381749799429051
09:57:20.095300,0.7896315,4.816752,8.462217,0.011300675,-0.009926268,0.0012216945,31.149750483476396,-29.542169839665515,-5.33098143021517
09:57:20.106721,0.82313097,4.816752,8.45803,0.009926268,-0.0036650836,0.0061084726,30.723891603820686,-29.545035104022336,-5.558490762600063
09:57:20.117074,0.85184485,4.7976093,8.444271,0.008704574,0.0013744063,0.01099525,30.523575815842552,-29.47863200491147,-5.760421036543259
09:57:20.127425,0.8757731,4.78744,8.444869,0.0025961008,-0.0035123718,0.008399149,31.13293114264524,-29.41782966092002,-5.920680326360206
09:57:20.136947,0.8853444,4.78744,8.449655,-0.0022906773,-0.01099525,0.0047340663,30.964177658821736,-29.401228886142302,-5.981555241111591
09:57:20.145877,0.8662018,4.7976093,8.454441,-0.005955761,-0.01099525,0.0010689828,31.024119398977767,-29.445208474208016,-5.849841446270243
09:57:20.157047,0.8470592,4.8119664,8.477771,-0.0047340663,-0.007330167,0.0010689828,31.527579472888576,-29.457147644877196,-5.705789768466912
09:57:20.168159,0.8321041,4.8215375,8.496315,-0.0010689828,-0.0012216945,0.0047340663,30.63215191798366,-29.457048607134233,-5.593542012760099
09:57:20.175607,0.83688974,4.807181,8.5112705,0.0038177953,0.0025961008,0.009620844,30.37155629548558,-29.33995525909812,-5.615684205388811
09:57:20.186785,0.85124665,4.7976093,8.5112705,0.008704574,0.0062611843,0.012216945,30.359026313453192,-29.287151066624748,-5.7113905235863225
09:57:20.198190,0.8895318,4.7784667,8.492725,0.008704574,0.0062611843,0.01099525,30.24253402206404,-29.231068383349776,-5.979383240955528
09:57:20.207382,0.89431745,4.759324,8.493324,0.00503949,-0.0012216945,0.0071774554,30.452538433379836,-29.13003964024153,-6.010896453125497
09:57:20.219181,0.86081797,4.76411,8.468798,1.5271181E-4,-0.009773556,0.0022906773,29.79316904637973,-29.234206855273396,-5.803943428821404
09:57:20.227917,0.8380861,4.7826543,8.420342,-0.0047340663,-0.017103724,-0.0025961008,30.071495839963163,-29.474936872570495,-5.6839929272781085
09:57:20.238665,0.8428718,4.7970114,8.405986,-0.010842538,-0.014660334,-0.0027488125,30.83724542328622,-29.58872440904832,-5.725933703876572
09:57:20.248045,0.85184485,4.7970114,8.4347,-0.0132859275,-0.0061084726,-0.0015271181,31.199265939864404,-29.503135308558893,-5.766913558236179
09:57:20.258609,0.8422736,4.802395,8.472985,-0.012064233,0.0036650836,9.162709E-4,30.468521076037664,-29.423392849998994,-5.676948014036063
09:57:20.268644,0.86560357,4.773681,8.5118685,-0.009620844,0.0062611843,0.00335966,30.738221340699372,-29.159283095172942,-5.80665928279013
09:57:20.278645,0.8889336,4.755137,8.545966,-0.008399149,0.00503949,0.00335966,30.66470459956794,-28.96158668474151,-5.938431561126246
09:57:20.291521,0.91226363,4.750351,8.579466,-0.0071774554,-0.0,9.162709E-4,30.45908858479388,-28.836502015376478,-6.069514417243016
09:57:20.302853,0.8883354,4.750351,8.560323,-0.0021379655,-0.014965758,-0.013591352,30.32285021651422,-28.89705164236864,-5.924582071923576
09:57:20.311616,0.85124665,4.7832522,8.506484,0.0015271181,-0.017409148,-0.014813046,29.670877924385238,-29.22754400573805,-5.714582783249657
09:57:20.320157,0.85124665,4.7832522,8.506484,0.0053449133,-0.011300675,-0.012216945,30.622961898455408,-29.22754400573805,-5.714582783249657
09:57:20.332643,0.8470592,4.8119664,8.453842,0.0077883024,-0.0027488125,-0.009773556,31.35998370612939,-29.52585593283294,-5.721832602166803
09:57:20.339590,0.80877405,4.802395,8.45803,0.0077883024,0.0035123718,-0.007330167,30.758394304413006,-29.47570185375754,-5.462131734449993
09:57:20.350055,0.8033902,4.802395,8.481958,0.006413896,0.0071774554,-0.0025961008,30.57557404599386,-29.408503037608366,-5.410772980759728
09:57:20.358978,0.79860455,4.7982078,8.510672,0.003970507,0.0035123718,-0.0025961008,30.981369244962657,-29.30642927555711,-5.36069061867061
09:57:20.369053,0.7932207,4.8125644,8.534002,0.0015271181,-0.0036650836,-0.0013744063,30.948751676581264,-29.31455378557484,-5.310285530143208
09:57:20.380923,0.79800636,4.8125644,8.548957,1.5271181E-4,-0.01099525,0.0010689828,30.6241708419385,-29.270850820170516,-5.332847779405876
09:57:20.389522,0.81236327,4.7982078,8.544171,0.0025961008,-0.017103724,0.0035123718,30.839632574401136,-29.207616928834536,-5.431245192136372
09:57:20.399883,0.80817586,4.8125644,8.510672,0.0062611843,-0.018325418,0.004886778,31.365741555599712,-29.376971469305,-5.424557583165283
09:57:20.410462,0.82731843,4.7976093,8.477771,0.009926268,-0.015882028,0.008551862,31.41417442700427,-29.389477545675295,-5.573662747180777
09:57:20.421290,0.8662018,4.7778687,8.449655,0.009926268,-0.012216945,0.009773556,30.855857688774503,-29.35790499623691,-5.853131889902897
09:57:20.431690,0.8805587,4.758726,8.425727,0.007482879,-0.012216945,0.009773556,30.68283533671974,-29.324054578710328,-5.966228296614083
09:57:20.441014,0.87158567,4.7635117,8.411369,0.0025961008,-0.010842538,0.008399149,30.4540274146189,-29.39265358363935,-5.915873153844987
09:57:20.453062,0.86141616,4.78744,8.4400835,-0.0036650836,-0.010842538,0.008399149,30.261214589444023,-29.435827209383003,-5.827572468255062
09:57:20.461104,0.87996054,4.792824,8.478369,-0.008551862,-0.010842538,0.009468133,30.182093678098596,-29.348171976669644,-5.925449505948168
09:57:20.472314,0.8847462,4.7880383,8.5118685,-0.008551862,-0.010842538,0.0070247436,30.290178006619463,-29.226963439658597,-5.9341652542159276
09:57:20.482594,0.87936234,4.7832522,8.531011,-0.004886778,-0.009620844,0.005955761,31.082124780504103,-29.149929151104608,-5.885168465318018
09:57:20.493419,0.8650054,4.788636,8.540583,0.00503949,-0.008551862,0.007330167,31.206553751708807,-29.154443906145985,-5.783296620734101
09:57:20.502103,0.86979103,4.7838507,8.540583,0.00503949,-0.008551862,0.007330167,30.87979067162623,-29.12870775335338,-5.815074502734408
09:57:20.512926,0.89013004,4.7778687,8.454441,0.009926268,-0.0061084726,0.007330167,30.889974483678717,-29.337066089079205,-6.010272344590087
09:57:20.522762,0.8853444,4.78744,8.435298,0.008704574,-0.004886778,0.007330167,30.803094477436154,-29.442466153256255,-5.991661786649095
09:57:20.532377,0.87637126,4.7778687,8.420941,0.0062611843,-0.0036650836,0.004886778,30.180959866696373,-29.43740839817586,-5.941409950491195
09:57:20.541595,0.8805587,4.7730827,8.425727,0.0013744063,-0.0012216945,0.005955761,30.493721058980427,-29.39781037646271,-5.966228723500906
09:57:20.551979,0.89013004,4.7784667,8.459227,-0.0035123718,-0.0010689828,0.005955761,30.474815095357833,-29.326434899636077,-6.0068965235928085
09:57:20.563257,0.8751749,4.773681,8.492725,-0.009620844,-0.0061084726,0.0021379655,30.517800890899306,-29.210851023406537,-5.883559101994834
09:57:20.571824,0.846461,4.7838507,8.516056,-0.012064233,-0.009773556,-0.0015271181,30.480562699544397,-29.20476873995064,-5.676320917292892
09:57:20.583491,0.84107715,4.7934217,8.530413,-0.012064233,-0.01343864,-0.0015271181,30.67698186460104,-29.214348080261583,-5.631019260735959
09:57:20.593193,0.86081797,4.807181,8.520842,-0.0071774554,-0.01343864,0.0010689828,30.95934529998395,-29.30594433212604,-5.768733803649988
09:57:20.603665,0.8895318,4.802395,8.48794,-0.0022906773,-0.008551862,0.0022906773,30.64044035254147,-29.36683888367129,-5.98272960676201
09:57:20.614948,0.9236295,4.801797,8.469396,0.0038177953,-0.0012216945,0.0047340663,30.566684554789088,-29.406344697830644,-6.223793022667971
09:57:20.623950,0.9284152,4.7970114,8.445468,0.006413896,0.002443389,0.0047340663,30.939476279688385,-29.44894458768401,-6.27336867009804
09:57:20.633591,0.94337034,4.768297,8.426923,0.003970507,0.002443389,0.0035123718,30.828321781135596,-29.350275674934007,-6.387507107544477
09:57:20.644182,0.94755775,4.758726,8.436495,-0.0021379655,0.002443389,-1.5271181E-4,30.933079807530667,-29.27236712216626,-6.4084053519705995
09:57:20.656109,0.93260264,4.758726,8.484351,-0.008246438,0.002443389,-0.0051922016,31.428726145030982,-29.14074937686011,-6.272787677131765
09:57:20.664330,0.88414794,4.76411,8.52144,-0.011911522,-1.5271181E-4,-0.011300675,31.195096109376113,-29.077918466685166,-5.923568215718653
09:57:20.674266,0.85064846,4.779065,8.535198,-0.011911522,-0.00503949,-0.012522369,31.20077541167098,-29.124981885161137,-5.691507842912415
09:57:20.684647,0.7932207,4.8269215,8.562716,-9.162709E-4,-0.007482879,-0.00503949,32.13884725265887,-29.305954577409796,-5.292579972267243
09:57:20.694875,0.78364944,4.8269215,8.548359,0.0062611843,-0.004886778,0.0036650836,32.426637273337356,-29.349169184288467,-5.2378074046524405
09:57:20.703885,0.81236327,4.8125644,8.5346,0.011147963,-0.0036650836,0.009773556,31.062399194181104,-29.307737256783167,-5.437299727948765
09:57:20.715945,0.846461,4.792824,8.487342,0.013591352,-0.0061084726,0.012216945,30.138134580600394,-29.33228154156561,-5.695398916305207
09:57:20.723349,0.8805587,4.7826543,8.444869,0.013591352,-0.008399149,0.01343864,30.43343439427131,-29.391892017546894,-5.952802279139954
09:57:20.734122,0.90448695,4.7730827,8.43111,0.007482879,-0.008399149,0.01099525,30.515085890704228,-29.375052186148228,-6.123254772519499
09:57:20.746392,0.93320084,4.758726,8.446066,0.0025961008,-0.005955761,0.008399149,30.02515300644463,-29.24957819600051,-6.305003118125777
09:57:20.755065,0.9236295,4.768297,8.445468,0.0025961008,-0.002443389,0.0047340663,29.78099423418418,-29.303403501754794,-6.24128727156649
09:57:20.765526,0.91884387,4.7730827,8.459825,0.0013744063,0.0036650836,0.005955761,30.164755242890518,-29.288377085580766,-6.198746718981535
09:57:20.775476,0.93738824,4.7635117,8.493922,0.0013744063,0.0061084726,0.005955761,30.516059192660954,-29.136600036939328,-6.297670910051768
09:57:20.786372,0.9421739,4.759324,8.508279,0.003970507,0.007330167,0.0010689828,30.93428875101376,-29.073062202185284,-6.3189678667706906
09:57:20.798168,0.88414794,4.7832522,8.526225,0.0051922016,0.008399149,-0.0038177953,30.377857144994916,-29.162062982165136,-5.920267526802244
09:57:20.806519,0.8602197,4.7982078,8.539984,0.006413896,0.0047340663,-0.0038177953,30.069074537902395,-29.206206494770928,-5.751916597252947
09:57:20.816208,0.8560323,4.802395,8.525627,0.006413896,-0.0025961008,-0.002443389,29.992689117319557,-29.269375499309792,-5.73367828462172
09:57:20.826122,0.8327023,4.8119664,8.477173,0.0076355906,-0.007482879,-0.002443389,30.798057212923272,-29.462939645293368,-5.610096256874095
09:57:20.837028,0.81834537,4.8358946,8.443673,0.0051922016,-0.008704574,-0.0,31.237480848270625,-29.685433057506533,-5.5357125086048935
09:57:20.848721,0.8769695,4.811368,8.387442,-0.0022906773,-0.0010689828,0.009620844,31.226736960706194,-29.70603290804329,-5.969012025587687
09:57:20.857728,0.8769695,4.811368,8.387442,-0.008551862,1.5271181E-4,0.008246438,31.415062351596372,-29.70603290804329,-5.969012025587687
09:57:20.867308,0.8955139,4.7730827,8.421539,-0.015882028,-0.0010689828,0.0070247436,31.508383226226258,-29.405323584549727,-6.069802138961803
09:57:20.877568,0.8997013,4.7832522,8.473583,-0.020768806,1.5271181E-4,0.006872032,31.93330978506026,-29.307006426541978,-6.060797388314787
09:57:20.886950,0.90807617,4.7688956,8.536395,-0.020768806,0.0038177953,0.004428643,31.216901488301378,-29.053056578106318,-6.0721179999772605
09:57:20.896451,0.9170493,4.7694936,8.57468,-0.017103724,1.5271181E-4,0.003206948,29.809810802292464,-28.945921645880084,-6.104494804190413
09:57:20.905899,0.907478,4.764708,8.5938225,-0.010842538,-0.0061084726,0.0021379655,30.088940143103375,-28.870960319739194,-6.0278976477433055
09:57:20.916989,0.9176475,4.773681,8.550752,-0.0022906773,-0.007330167,-1.5271181E-4,30.912473126804738,-29.034167689956647,-6.125410550976285
09:57:20.929802,0.91346,4.7832522,8.512466,0.0027488125,-0.00503949,-0.0013744063,30.878974464020413,-29.192262663580347,-6.124886333957486
09:57:20.937787,0.9086744,4.773681,8.478967,0.006413896,-1.5271181E-4,-0.0012216945,30.387801900426453,-29.23998178021664,-6.116931298008537
09:57:20.948472,0.8997013,4.768297,8.4502535,0.006413896,0.005955761,-0.0013744063,30.997215283837086,-29.297099237150874,-6.077405420168496
09:57:20.957767,0.90448695,4.758726,8.445468,0.003970507,0.0047340663,-0.0013744063,30.996884019662343,-29.260216215632806,-6.112923684513032
09:57:20.968293,0.9092726,4.758726,8.469396,3.0542363E-4,0.0035123718,-0.0038177953,30.69845597935156,-29.190466323828634,-6.127791725675681
09:57:20.977704,0.8895318,4.7688956,8.492725,-0.00335966,0.0010689828,-0.007482879,30.424049714351714,-29.18214032323039,-5.979383240955528
09:57:20.988541,0.85124665,4.7832522,8.516056,-0.0045813546,0.0010689828,-0.008704574,29.700022341573682,-29.200363267935984,-5.7082021059043955
09:57:20.998610,0.8171489,4.807779,8.548957,-0.0021379655,0.0010689828,-0.0062611843,30.052142498949934,-29.241422950131515,-5.4600079725049415
09:57:21.008765,0.80757767,4.8269215,8.558528,0.003970507,-0.0,0.0010689828,31.0132935491433,-29.31401420063041,-5.390435665619192
09:57:21.019904,0.8033902,4.831707,8.534002,0.011147963,-0.0,0.007330167,30.783300589221458,-29.409042622552796,-5.377969716610273
09:57:21.031248,0.8225328,4.8215375,8.510672,0.016034741,-0.0,0.01343864,30.34341250101054,-29.418693679850026,-5.52033305702814
09:57:21.040803,0.8997013,4.7778687,8.455039,0.013591352,-0.005955761,0.015882028,30.31702065005761,-29.332455711389443,-6.073991179357136
09:57:21.050518,0.9236295,4.7635117,8.43111,0.0061084726,-0.012064233,0.01343864,30.696256658438816,-29.319963295397493,-6.25183180298452
09:57:21.059471,0.933799,4.768297,8.412566,-0.002443389,-0.0132859275,0.008399149,30.616343445149667,-29.394586527174464,-6.333931103694896
09:57:21.068480,0.93320084,4.7730827,8.43111,-0.007330167,-0.009620844,0.005803049,30.561585818573676,-29.366067072295078,-6.316096625998346
09:57:21.078687,0.9379865,4.78744,8.4502535,-0.008399149,-0.0047340663,0.0045813546,30.33316721725552,-29.383238167868488,-6.3339592782252225
09:57:21.088700,0.91405827,4.7970114,8.469396,-0.0071774554,-0.0,0.00335966,30.492498455118994,-29.384884243458462,-6.159796711465891
09:57:21.099273,0.90388876,4.7880383,8.478369,-0.0047340663,0.0061084726,0.00335966,30.871000218164422,-29.316541370623316,-6.085383934892717
09:57:21.108888,0.90388876,4.7784667,8.517252,-0.0035123718,0.008551862,0.0047340663,30.827652422596937,-29.157193057286918,-6.057810034326553
09:57:21.119473,0.89371926,4.773681,8.545368,3.0542363E-4,0.007330167,0.0022906773,30.6349215596921,-29.056444351934644,-5.970586384191375
09:57:21.130739,0.8745767,4.788636,8.545368,0.0027488125,0.004886778,0.0010689828,30.82945559253782,-29.138181225732186,-5.843596945821559
09:57:21.140595,0.8602197,4.7982078,8.535198,0.003970507,-0.0,0.0010689828,30.67893871379825,-29.219750759895064,-5.755119955973683
09:57:21.150810,0.85124665,4.802395,8.5112705,0.006413896,-0.0036650836,0.0012216945,30.299948592227164,-29.31153142686711,-5.711390096699499
09:57:21.161392,0.8751749,4.7880383,8.483154,0.0062611843,-0.0061084726,0.002443389,30.169970092321822,-29.31148361554292,-5.890151088317542
09:57:21.171309,0.89013004,4.7922254,8.454441,0.00503949,-0.0061084726,0.0047340663,30.650709541958584,-29.4105452641702,-6.010271917703264
09:57:21.181624,0.91465646,4.7826543,8.411968,0.0038177953,-0.0036650836,0.005955761,31.1057674803161,-29.476094589634812,-6.205548733621221
09:57:21.191445,0.9385847,4.768297,8.422137,0.0013744063,-0.0,0.0047340663,30.734242755507843,-29.365547977918155,-6.358950513511476
09:57:21.202283,0.94755775,4.7635117,8.455637,-0.0010689828,0.004886778,0.0022906773,30.2493983621799,-29.242242572831916,-6.394017985370791
09:57:21.215004,0.93260264,4.759324,8.498708,-0.0021379655,0.005955761,-0.00503949,30.882809615239374,-29.103115034533342,-6.262275589112293
09:57:21.223177,0.91346,4.759324,8.512466,-0.0021379655,0.005955761,-0.008704574,30.93151227911615,-29.07007740951799,-6.124885907070663
09:57:21.232564,0.9086744,4.773681,8.512466,-0.0019852535,0.0047340663,-0.009926268,30.47018764219515,-29.144871396024215,-6.093040576952301
09:57:21.241846,0.8847462,4.7880383,8.516654,-7.635591E-4,0.0022906773,-0.011147963,30.910827051214767,-29.213388438683197,-5.930854746902587
09:57:21.252351,0.8560323,4.792824,8.506484,4.5813544E-4,0.0010689828,-0.009926268,30.854781933980227,-29.275010405375053,-5.746495134599249
09:57:21.261141,0.86081797,4.8119664,8.5016985,0.0015271181,-1.5271181E-4,-0.0062611843,30.33186948131322,-29.384792035904667,-5.781634750331672
09:57:21.271501,0.86560357,4.8119664,8.482556,0.0015271181,-0.0013744063,-0.00503949,30.640966277107562,-29.438088001998278,-5.826586359693642
09:57:21.281713,0.8566305,4.831109,8.458628,0.0015271181,-0.0038177953,-0.00503949,30.885818313568766,-29.606933693375577,-5.782798443811513
09:57:21.291286,0.8428718,4.840082,8.429316,0.0015271181,-0.0036650836,-0.0013744063,30.84178408398969,-29.741362061525184,-5.710190971613339
09:57:21.303156,0.85244304,4.816154,8.410771,-0.0022906773,-0.002443389,0.0035123718,30.545012364552637,-29.67011635829278,-5.787243189413899
09:57:21.312904,0.8859426,4.801797,8.425727,-0.005955761,0.0025961008,0.005803049,30.030074157741623,-29.543378783148608,-6.002441532706667
09:57:21.323302,0.8805587,4.792824,8.464012,-0.009620844,0.00503949,0.005803049,30.674598128580705,-29.389054073946756,-5.939435172047416
09:57:21.334656,0.90388876,4.7784667,8.507681,-0.009620844,0.008704574,0.005803049,31.09366097001225,-29.184305493197282,-6.064574056038981
09:57:21.343754,0.9176475,4.7688956,8.550752,-0.005955761,0.008704574,0.005803049,30.770289078852585,-29.009783914619703,-6.125410550976285
09:57:21.354336,0.92183495,4.750351,8.569894,-0.0022906773,0.004886778,0.0047340663,30.244962154313978,-28.860373526525674,-6.139509768970483
09:57:21.364951,0.9409775,4.7455654,8.575278,0.0027488125,0.0012216945,-1.5271181E-4,30.787484080088092,-28.815140598747263,-6.262094162212464
09:57:21.373978,0.92183495,4.755137,8.565108,0.0051922016,-0.0038177953,-0.004886778,30.76022479511057,-28.898151302825013,-6.142913337611265
09:57:21.385992,0.8889336,4.7784667,8.535796,0.009009997,-0.008857286,-0.008551862,30.474972189708744,-29.109224638745918,-5.945456410687605
09:57:21.397355,0.8703892,4.7880383,8.497512,0.013896775,-0.0025961008,-0.0036650836,30.32084555599282,-29.271970971194396,-5.8483370971055475
09:57:21.406528,0.89013004,4.7826543,8.444869,0.013896775,0.0035123718,-0.0012216945,29.433866945091207,-29.389013092811734,-6.0170342318684
09:57:21.416855,0.89072824,4.78744,8.420941,0.011300675,0.0035123718,-0.0,30.31589366884456,-29.482173457996122,-6.0380310871506655
09:57:21.426188,0.86201435,4.7970114,8.425129,0.0051922016,0.0022906773,-0.0013744063,30.837808913892744,-29.527758140516788,-5.841871042395661
09:57:21.434093,0.85184485,4.811368,8.4347,-9.162709E-4,0.002443389,-0.0013744063,30.488526700116633,-29.57658033270404,-5.766913558236179
09:57:21.444307,0.8566305,4.816752,8.463413,-0.005955761,0.0036650836,-3.0542363E-4,30.56420178102579,-29.5199888003359,-5.779550688861172
09:57:21.454513,0.846461,4.8215375,8.506484,-0.005955761,0.0012216945,0.00335966,30.668006996031643,-29.423946095321764,-5.682666589918657
09:57:21.465381,0.846461,4.807181,8.520842,-0.0035123718,-0.0012216945,0.0047340663,31.330641213455014,-29.310032200344292,-5.673153843952122
09:57:21.474234,0.85124665,4.802395,8.5016985,-0.0010689828,-0.0047340663,0.0071774554,31.381474896352834,-29.338787296750045,-5.717778031120754
09:57:21.486631,0.8662018,4.807181,8.472985,0.0013744063,-0.0047340663,0.009620844,31.497147565041587,-29.440912285220076,-5.837126622243441
09:57:21.495625,0.89491564,4.7976093,8.468798,-0.0012216945,-0.0035123718,0.010842538,30.228057436118196,-29.39549835742866,-6.032178895692434
09:57:21.505447,0.9284152,4.768297,8.445468,-0.0036650836,-0.0022906773,0.009620844,29.366234411929742,-29.30189744504281,-6.27336867009804
09:57:21.516007,0.9379865,4.768297,8.436495,-0.005955761,0.0013744063,0.0070247436,30.30265334713849,-29.324556597614325,-6.344204988867065
09:57:21.526047,0.94277215,4.758726,8.450851,-0.008399149,0.0025961008,0.0045813546,29.915975847656558,-29.232874968385243,-6.365563417288518
09:57:21.535861,0.9523434,4.7491546,8.44128,-0.010842538,-0.0012216945,9.162709E-4,28.99533464943054,-29.20798234395513,-6.436879129959913
09:57:21.545552,0.94277215,4.7730827,8.4604225,-0.015729317,-0.0,-0.0027488125,29.143037490232064,-29.279159745295836,-6.358421600737623
09:57:21.555260,0.927817,4.7784667,8.517252,-0.016951011,0.002443389,-0.0053449133,29.162124453867666,-29.149912075631683,-6.216935512741278
09:57:21.565909,0.8985049,4.7934217,8.56451,-0.013133216,0.0012216945,-0.0076355906,29.78060491340149,-29.101602147632182,-5.989006550609252
09:57:21.578461,0.8500503,4.7934217,8.573483,0.003970507,0.0061084726,-1.5271181E-4,29.931179848749007,-29.090270863799134,-5.662299819587325
09:57:21.587883,0.86979103,4.7982078,8.550154,0.011300675,0.0061084726,0.0036650836,29.65463231944436,-29.17472615288634,-5.808609728684991
09:57:21.597464,0.89431745,4.773681,8.516654,0.017409148,0.004886778,0.004886778,29.975634134962036,-29.137320621896766,-5.994550529781187
09:57:21.605777,0.91346,4.759324,8.483752,0.017409148,0.0035123718,0.002443389,30.409842920878084,-29.151421547438257,-6.145458436850741
09:57:21.617375,0.91405827,4.7395835,8.436495,0.011300675,-0.0025961008,-0.0012216945,30.04000525279482,-29.184524059250723,-6.183632791008765
09:57:21.628074,0.91465646,4.7635117,8.421539,0.003970507,-0.00503949,-0.00503949,30.352882558294766,-29.350241523988156,-6.19855077792972
09:57:21.635900,0.89491564,4.7778687,8.4400835,-0.00335966,-0.0025961008,-0.008704574,30.220066114789283,-29.376766563629904,-6.05254908111835
09:57:21.646461,0.8853444,4.7976093,8.468798,-0.005803049,-1.5271181E-4,-0.008704574,29.958142020497633,-29.39837728216382,-5.968131784958401
09:57:21.656197,0.8847462,4.807181,8.497512,-0.0045813546,0.0022906773,-0.0062611843,30.474627265155657,-29.36535331752681,-5.944119828044398
09:57:21.666529,0.84167534,4.822136,8.525029,-9.162709E-4,0.002443389,-0.0025961008,30.485337001774237,-29.375492733349695,-5.638533322596619
09:57:21.677713,0.82672024,4.822136,8.5346,0.0027488125,0.0012216945,0.0010689828,30.8722808786338,-29.3524408449009,-5.532801994244822
09:57:21.686780,0.85064846,4.8125644,8.530413,0.00503949,-0.0012216945,0.0047340663,31.62902485753619,-29.309034992725472,-5.694680465781886
09:57:21.697218,0.86081797,4.816752,8.5016985,0.007482879,-0.004886778,0.007330167,31.14465516235557,-29.40914507539035,-5.7816351772184955
09:57:21.706740,0.8709874,4.802395,8.459227,0.008704574,-0.008551862,0.009773556,30.3614612758923,-29.454514606952156,-5.878630266735024
09:57:21.717923,0.89072824,4.78744,8.420941,0.00503949,-0.008399149,0.01099525,30.807957572125204,-29.482173457996122,-6.0380310871506655
09:57:21.728224,0.91465646,4.7730827,8.402397,1.5271181E-4,-0.0047340663,0.009620844,30.838710498863186,-29.45454192770884,-6.212562057238355
09:57:21.737555,0.90448695,4.7730827,8.435896,-0.0047340663,-0.0010689828,0.008399149,30.590860009356348,-29.36131326063275,-6.119807234535935
09:57:21.750425,0.9086744,4.7688956,8.474181,-0.008551862,-0.0010689828,0.0070247436,30.22958056830311,-29.229118364341737,-6.120359199198237
09:57:21.760633,0.89431745,4.76411,8.493324,-0.009620844,-0.0035123718,0.0045813546,30.29530406359156,-29.1545326986052,-6.010896026238674
09:57:21.769165,0.8991031,4.773681,8.512466,-0.005955761,0.0013744063,0.0045813546,30.295870969292668,-29.14774690566479,-6.029335829450416
09:57:21.778560,0.9176475,4.773681,8.541181,-0.005955761,0.0013744063,0.0045813546,30.31806225390604,-29.06109229566484,-6.132222384012903
09:57:21.788798,0.90807617,4.7784667,8.545966,0.007482879,0.002443389,0.0061084726,30.035883233630717,-29.074875617409923,-6.065368065529995
09:57:21.799387,0.93738824,4.76411,8.493922,0.01007898,0.0036650836,0.0036650836,29.658013263083518,-29.139663376782078,-6.297670483164945
09:57:21.808457,0.9284152,4.7730827,8.459825,0.01007898,0.0035123718,0.0012216945,29.922754810407795,-29.28539229291347,-6.262807490093907
09:57:21.819291,0.89013004,4.78744,8.4400835,0.003970507,0.0010689828,-0.0025961008,29.881900033887366,-29.427262152163806,-6.02042115192308
09:57:21.829398,0.89013004,4.78744,8.444869,-0.00335966,-0.0038177953,-0.0038177953,30.212177246297916,-29.413516396459155,-6.0170342318684
09:57:21.839583,0.8805587,4.7880383,8.468798,-0.0071774554,-0.0061084726,-0.003970507,30.729895340101127,-29.350890391959307,-5.936102893506096
09:57:21.850738,0.86560357,4.802395,8.482556,-0.009620844,-0.007330167,-0.0051922016,30.701864243747394,-29.389279470189365,-5.826587213467288
09:57:21.861473,0.8703892,4.8119664,8.492127,-0.008399149,-0.007330167,-0.0027488125,30.071994443772574,-29.409326075403353,-5.85201942284183
09:57:21.870750,0.8703892,4.8119664,8.506484,-0.0047340663,-0.002443389,0.0010689828,30.03649112046685,-29.368372261139957,-5.842211271193692
09:57:21.882043,0.86081797,4.807181,8.516056,1.5271181E-4,-0.0012216945,0.0035123718,31.060210118552114,-29.319550068952704,-5.771953810956825
09:57:21.891345,0.8751749,4.802395,8.516654,0.0025961008,-0.0,0.0071774554,30.96589886649258,-29.289329896969985,-5.867144022985178
09:57:21.902391,0.8889336,4.7976093,8.531011,0.00503949,-0.002443389,0.008399149,30.642366465887413,-29.22022545804238,-5.948767344887768
09:57:21.912164,0.8847462,4.7880383,8.516654,0.007482879,-0.004886778,0.007330167,30.487232379268914,-29.213388438683197,-5.930854746902587
09:57:21.921714,0.89431745,4.7880383,8.492725,0.009926268,-0.004886778,0.008551862,30.05014125352312,-29.27852112260844,-6.011316509759453
09:57:21.933630,0.8991031,4.7976093,8.48794,0.011147963,-0.0036650836,0.009773556,29.486117892241808,-29.339555693031674,-6.046629014655242
09:57:21.942678,0.91346,4.7826543,8.478967,0.011147963,-0.0036650836,0.009773556,29.674009566119686,-29.284398500389234,-6.148900425305604
09:57:21.953396,0.91884387,4.7778687,8.46461,0.011147963,-0.0012216945,0.008551862,29.3281151261719,-29.29921318069899,-6.195269298920352
09:57:21.963324,0.91405827,4.7778687,8.459825,0.008704574,0.0036650836,0.008551862,29.379362035514507,-29.314365955372665,-6.166711851113705
09:57:21.972336,0.92303133,4.773681,8.488539,0.0062611843,0.0036650836,0.0071774554,30.776183532106305,-29.208344343981143,-6.205876582701381
09:57:21.981682,0.927817,4.759324,8.493324,0.00503949,-0.0,0.0047340663,30.774807248988548,-29.119848997999874,-6.234312367763438
09:57:21.991242,0.89431745,4.773681,8.497512,0.0025961008,-0.002443389,0.0022906773,30.451295338950892,-29.19158305975793,-6.007955629800984
09:57:22.001325,0.8703892,4.7784667,8.507083,1.5271181E-4,-0.0061084726,-1.5271181E-4,30.488868209575134,-29.19590656950255,-5.841802740503961
09:57:22.012428,0.8560323,4.7976093,8.492127,-0.0010689828,-0.012216945,-1.5271181E-4,30.52933708040746,-29.340307013840373,-5.7561449112360075
09:57:22.022329,0.8422736,4.8263235,8.472985,-0.0010689828,-0.01343864,0.0022906773,30.626602389283025,-29.545407349332102,-5.676948014036063
09:57:22.032487,0.8566305,4.8502517,8.462815,1.5271181E-4,-0.009620844,0.0071774554,30.48128669959642,-29.69228032214947,-5.779956658229965
09:57:22.041744,0.8811569,4.840082,8.439486,0.0012216945,-0.0047340663,0.012064233,30.35397197346738,-29.700599492558545,-5.9605891216805915
09:57:22.052622,0.9194421,4.816154,8.426325,0.002443389,-0.0022906773,0.015729317,29.931596490288378,-29.604717296989907,-6.22721793564991
09:57:22.062620,0.933799,4.7826543,8.416754,0.0012216945,0.0015271181,0.016951011,29.649294526607996,-29.456246059906757,-6.330805438375969
09:57:22.072668,0.95712906,4.7730827,8.431708,-0.002443389,0.0027488125,0.014507622,29.677329038056314,-29.35666190180797,-6.476233399297057
09:57:22.082870,0.9810573,4.7635117,8.465807,-0.007330167,0.0013744063,0.010689827,29.33541318330006,-29.20240207940323,-6.610217805150612
09:57:22.092882,0.9708878,4.7539406,8.489735,-0.010842538,-0.0010689828,0.0045813546,29.651353828642755,-29.08881603350592,-6.524014841409528
09:57:22.103630,0.9415757,4.76411,8.517851,-0.009620844,0.0012216945,9.162709E-4,30.066427839599015,-29.07067846616495,-6.307949064092168
09:57:22.113249,0.90329057,4.7838507,8.545966,-0.0035123718,0.002443389,0.0010689828,30.475303453883487,-29.10371950627489,-6.033640129287993
09:57:22.123657,0.90329057,4.7880383,8.535796,0.0027488125,0.0012216945,0.0010689828,31.164510522272796,-29.153719906093965,-6.040775969423364
09:57:22.133925,0.89431745,4.7688956,8.507681,0.0076355906,0.0036650836,0.0036650836,30.67997007236292,-29.138290508758907,-6.000827046741605
09:57:22.143646,0.9086744,4.7545385,8.474181,0.0051922016,0.0061084726,-1.5271181E-4,29.94609356680173,-29.15556405716987,-6.12035962608506
09:57:22.154174,0.9092726,4.7730827,8.46461,0.0015271181,0.004886778,-0.0013744063,29.575866577935773,-29.2776639338676,-6.131230299035958
09:57:22.163052,0.89431745,4.7880383,8.483154,3.0542363E-4,0.005955761,-0.0025961008,29.444795247763228,-29.305787237775128,-6.018049368733793
09:57:22.173343,0.87996054,4.802395,8.52144,3.0542363E-4,0.004886778,-0.0013744063,29.538648877148376,-29.274347877025562,-5.895711716075579
09:57:22.183348,0.8560323,4.8125644,8.525627,0.0027488125,-0.0,-1.5271181E-4,30.26579081618793,-29.321097106799712,-5.73367828462172
09:57:22.195300,0.8560323,4.831109,8.496913,0.00503949,-0.002443389,0.0036650836,30.39127846671399,-29.497213534548493,-5.75292490392917
09:57:22.204564,0.8757731,4.8215375,8.482556,0.008704574,-0.0012216945,0.007330167,30.359886917288613,-29.48385026943736,-5.894560829200432
09:57:22.213962,0.89013004,4.816752,8.478369,0.009926268,0.0012216945,0.008551862,30.75645111559414,-29.467188022957117,-5.993433366965067
09:57:22.225382,0.90508515,4.801797,8.435298,0.011147963,0.0013744063,0.012216945,30.512490418819624,-29.509931346783056,-6.124254968346083
09:57:22.235700,0.933799,4.782056,8.411968,0.007482879,0.0025961008,0.01343864,30.08028629342497,-29.46695921161992,-6.334377627311886
09:57:22.245201,0.9529416,4.782056,8.422137,0.0025961008,0.0062611843,0.010842538,29.738688042465125,-29.431517360016723,-6.455404310536281
09:57:22.255678,0.9379865,4.78744,8.445468,-0.0010689828,0.007482879,0.0071774554,29.241156572753884,-29.39694294243812,-6.337519087443269
09:57:22.265072,0.91884387,4.7922254,8.474181,-0.0035123718,0.0062611843,0.0071774554,29.13036065913252,-29.345289636839897,-6.188326838515857
09:57:22.275916,0.90388876,4.7784667,8.483752,-0.0010689828,0.008704574,0.0071774554,29.38648592281883,-29.252282950911834,-6.081550918107871
09:57:22.286561,0.9086744,4.7832522,8.488539,0.0013744063,0.012369657,0.008399149,29.716766550323968,-29.26165738554768,-6.110085314026069
09:57:22.295897,0.9182457,4.7880383,8.507681,0.0025961008,0.014813046,0.009620844,30.18570343307495,-29.228776854883236,-6.1601659685678944
09:57:22.306813,0.9421739,4.7784667,8.498708,0.0025961008,0.016034741,0.008399149,30.41312824186886,-29.19796587153731,-6.326026867277899
09:57:22.317910,0.93260264,4.768297,8.483752,-0.0021379655,0.0036650836,-1.5271181E-4,30.011513118672113,-29.19143962578536,-6.273227797446408
09:57:22.326781,0.91346,4.7778687,8.478967,-0.005803049,-0.002443389,-0.003970507,29.5186227625019,-29.259936177876835,-6.148900425305604
09:57:22.335798,0.89431745,4.7880383,8.483154,-0.008246438,-0.00503949,-0.006413896,29.397919659489432,-29.305787237775128,-6.018049368733793
09:57:22.345021,0.8757731,4.8119664,8.482556,-0.0070247436,-0.0038177953,-0.0051922016,29.258051045665912,-29.43509637914181,-5.8945604023136084
09:57:22.355760,0.8757731,4.8215375,8.487342,-0.0035123718,-0.0012216945,-0.0013744063,29.94159247213869,-29.470155740151487,-5.891260567170846
09:57:22.365636,0.8853444,4.807181,8.473583,1.5271181E-4,0.002443389,0.0035123718,30.78706060835955,-29.433532265821878,-5.964785846038741
09:57:22.377054,0.8997013,4.7922254,8.4400835,0.0025961008,0.008551862,0.005955761,30.253185702074674,-29.44884896503563,-6.084673595219036
09:57:22.387010,0.9284152,4.7778687,8.455039,0.0015271181,0.012216945,0.0047340663,29.476050193405207,-29.323576465468427,-6.266323329969172
09:57:22.396791,0.9613165,4.7826543,8.479566,-9.162709E-4,0.009773556,0.0022906773,29.58189421987831,-29.267630385976855,-6.467927462379499
09:57:22.407320,0.95653087,4.7730827,8.498708,-0.00335966,0.007330167,-0.0025961008,30.480303152355937,-29.165922039046194,-6.421624756222337
09:57:22.417688,0.927817,4.7880383,8.512466,-9.162709E-4,0.005955761,-0.007482879,30.55100927064391,-29.21226487256473,-6.22040311440553
09:57:22.427993,0.8991031,4.807181,8.516654,0.0029015245,0.005955761,-0.008704574,30.117466428171934,-29.30660686047553,-6.026392871691787
09:57:22.437750,0.9086744,4.8119664,8.492725,0.006566608,0.005955761,-0.004886778,30.101572577973315,-29.396174546156495,-6.107096252490542
09:57:22.448544,0.9421739,4.7784667,8.493922,0.0077883024,0.005955761,-0.004886778,30.42020773294358,-29.21154087251271,-6.329561917060204
09:57:22.457926,0.91884387,4.78744,8.459825,0.006566608,0.00335966,-0.008551862,30.384219466206783,-29.361856260671765,-6.198747145868357
09:57:22.468681,0.8853444,4.78744,8.449655,0.0029015245,-3.0542363E-4,-0.012369657,29.65714241396434,-29.401228886142302,-5.981555241111591
09:57:22.478422,0.8853444,4.801797,8.444869,-0.0021379655,-0.0051922016,-0.012369657,29.726854739728076,-29.4884196659921,-5.984920389938292
09:57:22.489283,0.8859426,4.7970114,8.425727,-0.005803049,-0.00503949,-0.011147963,30.698466224635315,-29.5188720644066,-6.002441532706667
09:57:22.500668,0.8709874,4.801797,8.4400835,-0.011911522,0.0010689828,-0.008857286,30.07856850084871,-29.506485516346785,-5.891869734667447
09:57:22.509762,0.8757731,4.8065825,8.449655,-0.011911522,0.004886778,-0.006413896,29.497780440249603,-29.501984421683744,-5.917351036026648
09:57:22.520089,0.89491564,4.7976093,8.473583,-0.010689827,0.008551862,-0.003970507,29.646436092440346,-29.381810658331958,-6.0287970982796315
09:57:22.530210,0.9182457,4.7880383,8.49811,-0.008246438,0.009773556,-0.0015271181,30.18242494227334,-29.25594734740155,-6.167050372364444
09:57:22.539103,0.9421739,4.7784667,8.517851,-0.0045813546,0.009773556,-0.0027488125,30.508849927992006,-29.14376490537867,-6.311924661075938
09:57:22.548509,0.93738824,4.7784667,8.512466,-0.0021379655,0.008399149,-0.00503949,30.316211272640967,-29.160485208466863,-6.284061331243694
09:57:22.561162,0.95653087,4.7635117,8.489137,-0.00335966,0.0035123718,-0.007482879,30.443372319513678,-29.14411666012093,-6.428804138813666
09:57:22.568878,0.9661021,4.768297,8.484351,-0.0056503373,-3.0542363E-4,-0.013591352,30.566930441599208,-29.179094058860564,-6.496215971487576
09:57:22.580090,0.9523434,4.7730827,8.4604225,-0.0056503373,-0.0015271181,-0.017256435,30.159977525566095,-29.276099820547667,-6.422437548733568
09:57:22.590269,0.93320084,4.78744,8.459825,-0.006872032,9.162709E-4,-0.02107423,30.444249998822023,-29.35736541129248,-6.294831258904336
09:57:22.600394,0.91346,4.802395,8.483752,-0.004428643,9.162709E-4,-0.020921519,30.56892144174227,-29.371534638725674,-6.145458009963918
09:57:22.610975,0.9086744,4.7976093,8.483154,-0.0018325418,0.0019852535,-0.022143213,29.837032521229553,-29.350299580596104,-6.113934552510194
09:57:22.620523,0.9086744,4.816752,8.5118685,-6.1084726E-4,0.0019852535,-0.023364907,29.615573882675644,-29.365995355308794,-6.093464902454489
09:57:22.630032,0.90388876,4.8454657,8.507083,0.0018325418,-0.00167983,-0.024586603,29.944003528915704,-29.52687363101927,-6.064997100880698
09:57:22.640527,0.89491564,4.8693943,8.477771,0.0030542363,-0.0053449133,-0.024586603,30.35917657761493,-29.734938268610787,-6.025841333916308
09:57:22.651273,0.90508515,4.892724,8.415557,0.004275931,-0.009009997,-0.023212196,30.80194700565559,-30.03035419549759,-6.138511280691192
09:57:22.661280,0.92482597,4.8969116,8.386844,0.004123219,-0.010231691,-0.019547112,30.509744682773277,-30.129262164868546,-6.292641756388523
09:57:22.672846,0.9840483,4.946563,8.645866,0.04718795,-0.040010497,-0.026266431,30.032375931491917,-29.616506203497348,-6.493302468919743
09:57:22.682401,1.2005987,4.9926243,9.720243,0.04718795,-0.040010497,-0.026266431,30.448529112337038,-27.01057217663134,-7.041242442252968
09:57:22.692156,1.5906289,5.0015974,11.79841,0.36146885,-0.5467083,-0.22005773,30.452073980516275,-22.7882755902291,-7.678162278111712
09:57:22.702457,2.1134605,4.9938207,12.882957,0.36146885,-0.5467083,-0.22005773,29.877887297749982,-20.932695900296935,-9.31643779205263
09:57:22.711272,2.1134605,4.9938207,12.882957,0.36146885,-0.5467083,-0.22005773,31.080762157764685,-20.932695900296935,-9.31643779205263
09:57:22.722131,2.1134605,4.9938207,12.882957,0.36146885,-0.5467083,-0.22005773,31.134447444640983,-20.932695900296935,-9.31643779205263
09:57:22.732504,1.3663018,4.2610188,9.64128,0.36146885,-0.5467083,-0.22005773,31.237713074702405,-23.63339709434958,-8.065889065404887
09:57:22.742267,-0.0035892338,3.9338005,5.9874406,0.94116294,-0.04734066,-0.6187883,35.64913418412771,-33.305255732694874,0.034346550061494625
09:57:22.752913,0.17347965,4.551747,7.3028946,0.8093726,0.5830537,-0.45019442,34.9627070027306,-31.927200180847684,-1.3608004662913256
09:57:22.763835,0.11246266,5.1822557,7.7437725,0.7591304,0.98315865,-0.3736858,35.094345238604255,-33.788276465514414,-0.832046974584342
09:57:22.774441,0.1160519,6.250053,10.198809,0.7576033,1.3070605,-0.27839363,35.46464735955108,-31.499220527454685,-0.6519385680699552
09:57:22.783336,-0.13160525,6.3565335,9.919446,0.7718055,1.223069,-0.31840414,35.79027321313686,-32.650086912034325,0.7601214007252582
09:57:22.793823,-0.5940182,6.314659,9.212367,0.704765,1.1656493,-0.3423799,36.89188368851695,-34.37345633774984,3.6893544278258905
09:57:22.802507,-0.9451649,5.951548,8.817552,0.58839864,1.1235008,-0.35245886,37.719275729099365,-33.86641041452478,6.11824824385788
09:57:22.812783,-0.9732806,5.627321,8.69133,0.44683477,0.92848784,-0.3800997,38.02306888300319,-32.75892597645848,6.3895296973124465
09:57:22.822358,-0.74596244,5.3012986,9.01795,0.32955208,0.4535541,-0.42835665,37.41761359421658,-30.364319710059952,4.72872608505471
09:57:22.833013,-0.6789634,4.9603214,8.696713,0.2780882,-0.1368298,-0.48287475,37.36982617568859,-29.624162845556935,4.464098516512205
09:57:22.844040,-0.84406817,4.8711886,7.919645,0.2597628,-0.66338015,-0.5076141,38.31931126277957,-31.45049054282123,6.083564116365732
09:57:22.854198,-1.3351951,5.0889354,7.0396843,0.24632415,-1.0501992,-0.46851984,41.820438910571426,-35.38353886315718,10.739545271665222
09:57:22.864747,-1.6265212,5.5094743,6.378069,0.18050537,-1.200773,-0.18951537,45.12898595962019,-39.93021820871625,14.30651167418777
09:57:22.875043,-1.2017952,6.0323057,6.4181485,0.17760384,-0.97918814,-0.030695075,43.47846733159202,-42.73255944780786,10.605791384696154
09:57:22.883586,-1.1126626,6.2291155,6.8482585,0.24662958,-0.58381724,0.17531316,42.477236731349024,-41.91807646475676,9.228423974407846
09:57:22.895283,-0.8380861,6.2344995,7.0983086,0.38239038,0.0029015245,0.44164258,40.484549531565314,-41.096534481198454,6.733649141849675
09:57:22.903855,-0.19501504,6.198009,7.361519,0.52914643,0.76050484,0.69346434,36.93204861593121,-40.085704050077005,1.5174757210630152
09:57:22.913489,0.5940182,6.460023,8.452047,0.63497573,1.4904673,0.81990975,32.16450485827602,-37.323124757238624,-4.020193423295676
09:57:22.923385,1.0743774,6.6101727,12.374482,0.68185824,1.5451381,0.8222004,31.624353008143903,-28.020825456767923,-4.962091877766067
09:57:22.933840,0.7585248,6.6819572,9.739387,0.63940436,1.0239327,0.7751652,29.765192591539357,-34.3723054508747,-4.453331150172504
09:57:22.944780,0.8243274,6.6017976,10.547563,0.42988375,0.7264501,0.72828263,29.922515753786847,-31.964356409932552,-4.4687733541122565
09:57:22.954841,0.68853474,6.786045,10.757532,0.12720895,0.0056503373,0.63955706,30.187701263407178,-32.19164119984848,-3.6622150980456682
09:57:22.965399,0.357727,7.1653075,11.050653,-0.17256436,-0.5864134,0.55739814,30.959656073591187,-32.94591265027133,-1.8541067169489711
09:57:22.975060,0.1788635,7.3956165,11.610574,-0.3776563,-1.1661074,0.52960455,32.5426753571467,-32.492934504516086,-0.8825845581094712
09:57:22.985750,0.26979074,7.423134,11.267203,-0.43538138,-1.656465,0.56518644,32.56105881129779,-33.370412322282206,-1.3716728467895165
09:57:22.995465,0.7908279,7.259226,10.347761,-0.4265241,-1.9139372,0.6336013,30.25375602287037,-34.97226926756862,-4.370335387133563
09:57:23.005713,1.2981063,7.031309,8.650054,-0.33428615,-1.738624,0.7029325,26.757549526375506,-38.79446703276985,-8.534641533048276
09:57:23.016434,1.1377872,7.266404,7.39442,-0.09529217,-0.8214368,0.7537855,25.553894317248133,-44.16462472051692,-8.747555604950499
09:57:23.027735,0.7040881,7.4063845,8.006983,0.22265382,0.23487078,0.88954633,27.389039788730916,-42.658557763245355,-5.025335160612153
09:57:23.037939,0.29192436,6.602994,7.62114,0.5435014,1.5915625,1.2610942,29.236675968658357,-40.885037673549014,-2.193616851013499
09:57:23.047647,0.010169496,6.6568327,7.9633136,0.5435014,1.5915625,1.2610942,29.584899503113117,-39.89349228154909,-0.07316915520580868
09:57:23.057695,1.1778669,7.219744,8.556135,0.91703445,2.6941419,1.4831371,21.265319282687383,-39.89309954567182,-7.838266181125042
09:57:23.067576,4.214957,6.593423,8.885149,1.0651649,2.804858,1.4092246,4.619928001765577,-33.84017565792276,-25.378834861273415
09:57:23.078094,5.519644,6.2979093,7.879565,1.1099094,2.6507716,1.0651649,-7.443701520699038,-33.21013510321869,-35.01128330810773
09:57:23.086339,2.9365916,4.549354,6.791429,0.9449807,2.5182178,0.7572979,0.9937676580794081,-31.585287741186015,-23.38349754809174
09:57:23.096079,2.3288147,4.820341,7.764111,0.7314896,2.306254,0.59542334,5.822212050417072,-30.738863378481355,-16.696409378927218
09:57:23.105939,1.7623138,5.440082,9.377472,0.65116316,1.8856854,0.42056835,10.964016877416752,-29.689268208725494,-10.643486344951809
09:57:23.116542,0.5084748,5.6650076,10.274182,0.71820366,1.3849435,0.29549736,17.27213114670947,-28.84196616671249,-2.833287545560465
09:57:23.127627,-0.076570325,6.006583,9.846465,0.8788565,0.8930587,0.263886,18.273966218694014,-31.383435160644627,0.44554748690765356
09:57:23.137380,-0.39960137,6.1190457,8.16132,1.0214894,0.5980195,0.26510772,19.21390270132532,-36.82824681601994,2.803125216742277
09:57:23.147054,-0.4528417,6.3625154,6.7698936,1.0593618,0.45981526,0.2780882,19.215062125936928,-43.15938821432571,3.8268435744973086
09:57:23.157697,-0.2835495,6.3158555,6.040681,0.9813261,0.27472857,0.28602922,18.06712930760581,-46.24424656805655,2.6874903275373727
09:57:23.167905,0.43968117,6.038288,5.782854,0.83151585,0.016034741,0.21807247,11.815659504647302,-46.15537214657635,-4.347939623731914
09:57:23.178201,0.631107,6.2267227,5.846264,0.70980453,-0.20493926,0.0787993,9.923836269658109,-46.6393252002176,-6.161247699777696
09:57:23.188664,0.8129615,6.3236322,6.068198,0.6256603,-0.34711397,-0.018630842,8.334099495053886,-45.92623637539534,-7.630527685066396
09:57:23.198995,1.0881361,6.192625,6.283552,0.65574455,-0.28755635,-0.12507097,5.839713983278406,-44.15929717296431,-9.824596182338762
09:57:23.208263,1.2263216,6.426523,4.668397,0.5969505,-0.13240114,-0.2635806,1.8542941202643233,-53.09083160717192,-14.718263651886465
09:57:23.220028,-0.37806597,7.166504,6.739983,0.3284831,-0.36345413,-0.38086328,19.044507179719833,-46.711834488446456,3.2105287118172012
09:57:23.228960,-1.9028922,7.778468,7.4494553,0.19470756,-0.77989924,-0.34161633,29.08408954260027,-45.33270318180499,14.32924510506651
09:57:23.240200,-2.236691,8.16431,7.6402826,0.27335414,-1.1502254,0.014965758,31.37726408472952,-45.72254305887264,16.317379983768408
09:57:23.249121,-1.7461623,8.082356,6.867999,0.42133188,-0.9582666,0.19180603,30.39404127823326,-48.75615450326087,14.26498924667597
09:57:23.259461,-0.9816555,7.98126,7.1712894,0.57618165,-0.6533011,0.36009446,24.9009316476895,-47.79526300025597,7.794596512892919
09:57:23.268209,-0.58624154,7.6827555,6.5072813,0.7815791,-0.30343837,0.45798272,22.556648507548335,-49.621208206926745,5.147884549134638
09:57:23.279336,-0.5886344,7.804789,6.175875,0.84342736,-0.12033691,0.54136336,22.53628259099065,-51.5195431735159,5.44452222610923
09:57:23.288641,-0.8255238,7.944171,6.1854467,0.8322794,-0.14034216,0.6164976,22.9578504043003,-51.849717933088904,7.601902362254873
09:57:23.298589,-0.93738824,7.7874413,5.910272,0.7704311,-0.34451786,0.7007945,23.677207635233334,-52.460046561848316,9.012228850383078
09:57:23.310633,-0.49052864,7.7054873,4.843073,0.6465818,-0.5754181,0.7973084,22.20737653905598,-57.71783056227575,5.783457130179596
09:57:23.320110,0.43070808,7.5696945,4.107878,0.47920966,-0.6846071,0.8814526,11.524936771493941,-61.38096346699114,-5.985551328662872
09:57:23.329306,1.5475581,7.222137,3.7369907,0.2896943,-0.70232165,0.9118422,-3.9582589754492927,-60.74901387441405,-22.495364635220394
09:57:23.340336,2.3778675,6.8925257,3.8787656,0.12552911,-0.64001524,0.8729007,-12.588439913947239,-56.57196387616856,-31.51027518862635
09:57:23.350409,2.361716,6.851249,3.8333018,-0.008093726,-0.52609223,0.8257128,-12.12795026765227,-56.68829907320681,-31.63742599021531
09:57:23.360525,2.5615165,6.68435,3.705884,-0.18019994,-0.41308546,0.79578125,-14.35504272956165,-56.021573572470594,-34.6523261313723
09:57:23.370661,2.5465615,6.686145,4.519444,-0.34925193,-0.29534465,0.7382089,-10.001859228094457,-52.19351208986691,-29.3998628483083
09:57:23.381714,1.6307086,7.19103,5.267799,-0.4500417,-0.21272756,0.707972,0.6975948608551996,-52.51726988671468,-17.200520028356472
09:57:23.391417,1.0444671,7.6289167,5.92762,-0.51433337,-0.13270657,0.7504259,6.841668583573426,-51.72784686772836,-9.993136222750705
09:57:23.403419,1.0378869,7.7497544,6.704689,-0.51815116,0.038177952,0.90573376,8.241341257256881,-48.799375940328716,-8.799550420007222
09:57:23.413489,0.79740816,7.6749787,8.084749,-0.47111595,0.100026235,1.001484,11.633477015141905,-43.372111040931166,-5.632930433043093
09:57:23.422388,1.7844474,7.115058,9.223733,-0.37841988,0.15683503,1.0782981,6.373791233917444,-37.138221291122626,-10.949325140512055
09:57:23.432728,3.0077782,6.306284,10.524232,-0.19577655,0.22326468,1.0757021,-0.43174636931812876,-29.948299717903645,-15.94969724036828
09:57:23.441810,3.4366915,5.837291,11.350354,0.07834116,0.3075616,1.0077453,-1.2822227684283254,-26.20709775097501,-16.845408248123753
09:57:23.451777,3.4163525,5.705087,11.959328,0.3771982,0.32100025,0.9512419,0.166114149317824,-24.640554591244857,-15.942747522887792
09:57:23.461669,2.961118,5.729614,10.844273,0.6090147,0.1357608,0.9072609,-0.9826956012697001,-27.00766080849762,-15.272767437012073
09:57:23.470582,2.8307092,5.616553,8.821739,0.7308788,-0.013744064,0.9035958,-3.946131547691112,-31.225364092683023,-17.790335891491043
09:57:23.482074,3.6580276,5.0596237,7.804789,0.7731799,-0.079715565,0.8481614,-11.565965717838207,-30.4128003927887,-25.11202376663062
09:57:23.492903,3.7238302,4.8819566,6.5294147,0.7892147,-0.10094251,0.7550072,-15.52366077579415,-33.00311548457019,-29.69680873756919
09:57:23.502829,3.2398818,4.92742,5.621937,0.7443174,-0.09849912,0.6688777,-15.464856262134926,-37.21255765495446,-29.95453909571045
09:57:23.512642,1.9782661,5.541777,4.2370906,0.6387935,-0.11468657,0.6418477,-10.54345395568874,-49.84227752469796,-25.027522373766516
09:57:23.522585,1.8131614,5.85763,3.5449667,0.4627168,-0.08994726,0.69438064,-12.275355141451255,-55.79390970705573,-27.088601965256856
09:57:23.532323,2.411367,7.6743803,3.714259,0.26892552,-0.13117945,0.7035433,-17.540683939590615,-60.01367570837048,-32.992395502667854
09:57:23.543130,-17.777475,43.97649,-6.2721863,-0.11957335,-0.054212693,0.8257128,110.08713806100045,-66.79653166743503,109.43368020272699
09:57:23.554071,-33.49832,16.043278,-6.0837517,-1.3030899,-0.45080528,2.399408,72.73370775441447,-25.23073245440544,100.29350056484842
09:57:23.563477,-10.0672035,25.01038,-0.3804588,-1.9382184,-1.2392564,3.5232143,93.06125913953203,-68.0600005506715,92.16428454678011
09:57:23.571965,-10.71506,18.650856,5.9264235,-1.6850221,-0.5094466,3.6290436,59.26058588067404,-56.71400790524273,61.05333295288397
09:57:23.585310,-11.790035,17.34617,8.517252,-1.0868499,0.009315421,3.9144619,51.456927414299805,-50.020279084657666,54.15523804214295
09:57:23.594884,-11.199606,10.423734,4.9752765,-0.58900946,0.1253764,5.256188,56.742401001622476,-40.38353103374082,66.0474511607814
09:57:23.604368,-3.9451663,3.7453656,8.149954,-0.5714476,0.16294351,5.7132545,30.454403075023247,-22.472019048637293,25.83033427107335
09:57:23.612720,3.3062828,-1.9280169,11.879168,-0.34100547,0.07207998,5.710353,-23.36655355630823,8.886760836650883,-15.553273060940741
09:57:23.624697,9.5048895,-5.9934225,15.251253,0.21944688,0.13835691,5.388589,-56.98983484958994,18.444164287526977,-31.931994973645033
09:57:23.632481,13.01217,-9.991829,17.019548,1.163664,0.39445463,4.7212386,-69.71106217873869,25.003780636211552,-37.39945212121352
09:57:23.642537,15.432509,-11.975479,16.531414,2.193858,0.71682924,4.019375,-75.35217688595475,27.90260000487688,-43.0309738277403
09:57:23.653464,19.590637,-14.178072,15.102899,3.0624828,0.9002361,3.238712,-77.34786936897326,29.81986142565614,-52.37049936673486
09:57:23.664305,25.049263,-16.442282,11.946167,3.627211,0.7417213,2.1481972,-75.10472596251437,30.645504937811037,-64.50320003095487
09:57:23.673599,27.59463,-16.763517,7.5607214,3.7976375,0.39628717,0.7597413,-72.76131537903966,30.36594187998783,-74.67742932803836
09:57:23.684458,27.27459,-16.59602,2.6201408,3.578496,0.04367558,-0.68979925,-71.26175417695254,31.202903015597435,-84.51270365737079
09:57:23.694382,22.531416,-14.718252,-0.8889336,3.0218613,-0.09101624,-1.9693716,-69.28968048808392,33.13347647506905,-92.25931979889167
09:57:23.704376,15.061622,-11.845669,-2.184049,2.3433628,-0.12720895,-2.7992074,-67.59478953611277,37.8950369870113,-98.25080955015105
09:57:23.714749,7.4715886,-8.318648,-2.4335005,1.6685293,-0.018019995,-3.0600393,-62.41075108815396,46.63149097323959,-108.04045821582778
09:57:23.724447,3.1740792,-5.0685964,-0.3152544,1.1900831,0.37002072,-2.8395236,-73.0854010249676,57.81755132415794,-95.6720989497694
09:57:23.734974,3.1495528,-3.0107691,3.539583,1.0089669,0.73607093,-2.4976017,-97.78246347876326,32.43416072670812,-41.662975729445954
09:57:23.744839,4.552943,-1.771287,6.34098,1.0705098,0.8909207,-2.3480968,-75.64285607665215,12.784321201606742,-35.67905724288154
09:57:23.755159,5.096712,-0.32662028,7.6851482,1.2397145,0.87778753,-2.4007823,-63.17248110515047,2.0285128226408964,-33.55193484475905
09:57:23.766469,3.9780676,1.5194423,7.446464,1.5552171,0.67819315,-2.6067908,-48.28779818658935,-10.202676181202941,-28.11212801049807
09:57:23.776219,-0.37208393,5.736194,4.1635113,1.5002409,0.5523586,-2.5499818,3.274001019443895,-53.91825779870019,5.106832124015099
09:57:23.786070,-1.9860427,7.4823565,3.7226338,1.3321052,0.3660502,-2.405822,25.835383488417282,-60.58143518312779,28.080131989331143
09:57:23.795963,-3.4420755,8.793025,2.7643085,1.0957073,0.1435491,-2.1801138,46.95345243033565,-63.340387645516884,51.232279077403504
09:57:23.805028,-3.8129628,10.133006,2.565106,0.7908945,0.01343864,-1.8830894,51.21171337781259,-65.60493686483461,56.06997570802389
09:57:23.815550,-3.7190447,10.822139,3.437888,0.5560237,-0.06474981,-1.5862176,43.20410887791637,-64.9210163628629,47.24968456482828
09:57:23.827087,-3.1956146,11.166107,4.1892343,0.42698222,-0.12720895,-1.3203464,35.292711007574354,-64.73886204788782,37.33696272049707
09:57:23.835370,-2.4891338,11.219945,4.77069,0.36925718,-0.18783553,-1.1018157,25.995628264082246,-64.37793436157685,27.553550017532547
09:57:23.846612,-1.7838492,11.173883,5.015356,0.37032616,-0.23456535,-0.9350544,18.369607650094412,-64.52724229683332,19.579328067204756
09:57:23.856639,-1.0893325,11.049457,5.0452666,0.39888325,-0.27946264,-0.7971557,11.65478379025776,-64.96133496953348,12.183803285816404
09:57:23.867431,-0.25244278,10.627124,4.9848475,0.41812494,-0.3538333,-0.70644486,3.21545455886925,-64.84199107416585,2.8990976988740074
09:57:23.878118,0.43429732,10.2107725,4.744369,0.42682952,-0.4743229,-0.66765606,-4.878624831674395,-64.98690036759685,-5.230252361656761
09:57:23.887782,0.8644072,9.951151,4.532604,0.42224815,-0.59908843,-0.645971,-10.014635096936965,-65.12310116983606,-10.79715535599334
09:57:23.897910,1.1240284,9.788439,4.633701,0.45217967,-0.7151494,-0.62642384,-12.572394945813231,-64.02864531761156,-13.635251781616317
09:57:23.907210,0.9026923,9.136395,3.1722846,0.4795151,-0.7792884,-0.5764871,-14.303865829658037,-70.15053021031565,-15.884016433762145
09:57:23.918807,1.2311072,9.418748,2.693122,0.396898,-0.7421794,-0.4811949,-22.1132121360636,-72.54731189196482,-24.566568274607988
09:57:23.928152,1.7844474,9.317652,3.2117662,0.35459682,-0.7183564,-0.396898,-25.71297796075419,-68.4793946562778,-29.05641361608338
09:57:23.938639,2.4849463,8.98146,2.8151557,0.335966,-0.7308788,-0.3477248,-37.497058939547586,-67.31097468553124,-41.43493961872132
09:57:23.949532,3.6221352,8.438289,2.1445673,0.2170035,-0.5517478,-0.36070532,-54.169424345049066,-63.487919731589166,-59.371385209389985
09:57:23.961176,3.8333018,8.217551,2.2241287,0.19150062,-0.37811446,-0.40529716,-54.04544616632958,-61.661554468284436,-59.877167547618605
09:57:23.969962,3.984648,8.179266,2.5591238,0.18264332,-0.20799349,-0.458899,-52.3603087244932,-59.92983513630857,-57.28956062584302
09:57:23.979670,3.7836509,8.073383,2.722434,0.20127417,-0.07269082,-0.5163186,-49.638010472284975,-59.99933914130262,-54.26401563486457
09:57:23.988528,3.4737802,8.082955,2.5836504,0.21547636,0.057266932,-0.55358034,-47.70342427667598,-61.82640108390269,-53.35969175856572
09:57:23.998332,3.1800613,8.052446,2.5178475,0.21440738,0.17516045,-0.5667136,-46.310670157734926,-63.26485258348572,-51.62920527573504
09:57:24.009534,2.8671997,8.204391,2.504687,0.18768282,0.2481567,-0.5647283,-44.885066243980695,-65.10697509320566,-48.86065639756207
09:57:24.017968,2.6213372,8.394022,2.4903302,0.13912046,0.25380704,-0.53433865,-42.58542351270744,-66.69629181117594,-46.46810943319831
09:57:24.028576,2.649453,8.224132,2.4945176,0.068873025,0.22433366,-0.49982578,-42.370105214217375,-66.13172886495019,-46.725218244125095
09:57:24.038844,2.9318058,8.164909,2.6925237,-0.014049487,0.1615691,-0.48669255,-42.89319183670821,-64.0095959200164,-47.4361316536967
09:57:24.049524,2.970091,8.156534,2.8630123,-0.069483876,0.11972606,-0.4964661,-41.145052729967645,-63.17113555788397,-46.05166255421887
09:57:24.059221,3.0209386,8.082955,2.986841,-0.09590302,0.11774081,-0.51036286,-41.116888444925095,-62.274645908563116,-45.325183143528804
09:57:24.070346,3.0472596,8.10449,2.984448,-0.11193776,0.13392825,-0.535713,-42.24519471467618,-62.242728434571646,-45.59663193661804
09:57:24.080472,2.7631118,8.184649,2.984448,-0.13117945,0.16844113,-0.5628958,-39.391251396405124,-63.57609747377403,-42.79465269755244
09:57:24.089885,2.3670998,8.318049,3.0520453,-0.15546063,0.20570281,-0.571753,-34.022374369127434,-65.09267950727283,-37.796374904450474
09:57:24.101093,2.0554347,8.463413,3.1082766,-0.18035266,0.228915,-0.5557183,-29.639694695729542,-66.23623758944055,-33.47578506570258
09:57:24.110671,1.9184456,8.523832,3.1657043,-0.21822518,0.23212196,-0.52624494,-26.976387079835423,-66.52617911970759,-31.216245790141055
09:57:24.120129,1.9280169,8.535796,3.1728828,-0.2716743,0.20845163,-0.49829865,-27.479015578214785,-66.49282730599042,-31.28515215358273
09:57:24.131421,1.9830518,8.547162,3.4007993,-0.34054735,0.17821468,-0.47279578,-27.208654492750878,-65.2696633690462,-30.247035116727076
09:57:24.141912,2.2187448,8.374879,3.822534,-0.42179003,0.107050985,-0.45859358,-26.986099608835183,-62.17739767516048,-30.132516750008058
09:57:24.151306,2.1571295,8.3174515,4.1371903,-0.43767205,0.1123959,-0.4691307,-24.113808694906183,-60.7091665507962,-27.53751956355053
09:57:24.160411,1.989632,8.379665,4.3262234,-0.42331716,0.122627586,-0.4756973,-21.30202301173974,-60.39225260349677,-24.69772156705057
09:57:24.171104,1.8257236,8.447861,4.433302,-0.40300646,0.14400724,-0.47065783,-19.48007005063884,-60.42324117176112,-22.382857759211944
09:57:24.181433,1.7270198,8.544769,4.512265,-0.37841988,0.15546063,-0.46180052,-17.362294766395515,-60.514854499098504,-20.943794957698206
09:57:24.194430,1.6713866,8.569296,4.5613184,-0.3582619,0.15622419,-0.44805646,-15.915669237923277,-60.451292758682364,-20.12415688937104
09:57:24.201335,1.68694,8.527422,4.462016,-0.35688752,0.10628742,-0.4369085,-17.11733686200218,-60.77726353682122,-20.709939525800724
09:57:24.213571,1.7910278,8.533403,4.343571,-0.3787253,0.059404895,-0.43583953,-20.41701661796097,-61.163599526844656,-22.408307044059413
09:57:24.222255,1.8131614,8.559725,4.319643,-0.39964682,0.03939965,-0.43736663,-19.30181748122714,-61.30804436741208,-22.770131192698962
09:57:24.233203,1.8658035,8.543573,4.4781675,-0.41186377,0.04550812,-0.44118443,-17.882782501907165,-60.410728265201655,-22.618777615786062
09:57:24.243193,1.8628124,8.455039,4.718646,-0.4005631,0.05375456,-0.45141613,-17.68234035542939,-59.036186845682444,-21.542961349806525
09:57:24.252888,1.8107685,8.446664,4.8616176,-0.3732277,0.066124216,-0.46210596,-17.488950379269646,-58.44200819921552,-20.428457184820743
09:57:24.262738,1.7168503,8.459227,4.924429,-0.334897,0.08231167,-0.47065783,-15.814672938213592,-58.34607819232269,-19.220570673502543
09:57:24.273455,1.588236,8.499306,4.819743,-0.29412296,0.10140064,-0.47630814,-13.9700428952946,-59.159820099848844,-18.238452650104534
09:57:24.284088,1.4733806,8.565707,4.6618166,-0.2663294,0.1201842,-0.47478104,-13.527529453121462,-60.28326327491088,-17.539290580999932
09:57:24.294144,1.2957134,8.602198,4.558327,-0.25716668,0.12690352,-0.47096324,-11.971706275293645,-61.149864016423756,-15.867904017510085
09:57:24.303464,1.1012967,8.651849,4.4165525,-0.26419145,0.10949437,-0.45828816,-10.039740311004994,-62.25087685025147,-14.0015437277467
09:57:24.314397,0.94636136,8.693723,4.17727,-0.29794076,0.07773031,-0.43660307,-8.87531600092288,-63.771959978413314,-12.764895289833579
09:57:24.325129,0.8452646,8.629117,4.171288,-0.42453885,0.00671932,-0.38636088,-7.412754787343356,-63.746483372809166,-11.455232983466669
09:57:24.334323,0.8542377,8.556135,4.3734818,-0.42453885,0.00671932,-0.38636088,-7.000677948772262,-62.48901822585314,-11.051988006379224
09:57:24.343760,0.8566305,8.461619,4.776074,-0.54960984,-0.060321167,-0.36039987,-5.987935064683207,-60.1680311534236,-10.168380093833013
09:57:24.354973,0.77407813,8.311469,5.1756754,-0.5668663,-0.06933116,-0.3605526,-4.07430943897651,-57.80379532316953,-8.5061536677938
09:57:24.364561,0.61914283,8.230712,5.487939,-0.5546493,-0.058946762,-0.35688752,-1.7032786377153413,-56.13863959975003,-6.436824915333377
09:57:24.373719,0.51445687,8.132606,5.748158,-0.5244124,-0.0413849,-0.3503209,-0.1415909820929147,-54.63938234108096,-5.114313315590379
09:57:24.383823,0.46061835,7.9836526,5.99761,-0.48440188,-0.027640838,-0.35093176,0.16641899987038872,-53.003855978280974,-4.391712598575234
09:57:24.394182,0.38524446,7.8891363,6.088537,-0.4355341,-0.029931515,-0.3582619,1.122194210939277,-52.28502296436674,-3.6204911799533526
09:57:24.403584,0.32183465,7.899306,6.1495543,-0.38742986,-0.031764057,-0.36742464,1.9461407412505425,-52.06151185396724,-2.9958202211539695
09:57:24.415617,0.18185452,7.868199,6.073582,-0.3437543,-0.04199575,-0.3735331,3.73020621613856,-52.32248313686967,-1.7150314722862292
09:57:24.426398,0.034695927,7.9447694,5.977869,-0.3141282,-0.058641337,-0.3736858,5.129672703486445,-53.040698018664024,-0.3325445684107314
09:57:24.435517,-0.096909314,7.9686975,5.937191,-0.29305398,-0.07314896,-0.35872006,6.228166905057718,-53.30786769823824,0.9351226933703267
09:57:24.447244,-0.096311115,7.932207,5.8875403,-0.27243787,-0.086434886,-0.3400892,6.648968029633034,-53.412332026499,0.9371873314903746
09:57:24.455879,-0.019142581,7.867601,5.8749776,-0.25716668,-0.09300149,-0.3246653,5.410753343965864,-53.25003990163033,0.1866875595519751
09:57:24.465292,0.08255238,7.812566,5.9557357,-0.23212196,-0.08383878,-0.31580803,3.975780971991314,-52.678069615249704,-0.7941252840647551
09:57:24.476071,0.1585245,7.800602,5.9880385,-0.19577655,-0.07177455,-0.30969957,3.4584075892977766,-52.47908912925431,-1.5164670942216747
09:57:24.486937,0.30269206,7.753942,5.956932,-0.15805672,-0.07146913,-0.31168482,2.465669688957454,-52.43118901260501,-2.9088924035872172
09:57:24.497748,0.41455653,7.752745,5.76431,-0.13148487,-0.07925743,-0.32176378,1.231761437561977,-53.297724867320774,-4.113504906415451
09:57:24.509322,0.50129634,7.752745,5.560322,-0.1293469,-0.100026235,-0.35887277,0.5526002967812897,-54.241752633264916,-5.151630054120743
09:57:24.517729,0.48035914,7.798807,5.3036914,-0.1293469,-0.100026235,-0.35887277,1.8039084550873739,-55.672861679490175,-5.175199756285989
09:57:24.527455,0.43489552,7.9130645,5.1720862,-0.21104772,-0.108425386,-0.37826717,2.2462413241343318,-56.73832679378256,-4.806416498655843
09:57:24.536859,0.48035914,7.975278,5.1942196,-0.2583884,-0.10552386,-0.37948886,0.8777587626565928,-56.81253338402016,-5.2836601720980285
09:57:24.547306,0.6358926,8.0201435,5.224728,-0.31244838,-0.08933641,-0.38468108,-0.17416302032658157,-56.72479960413135,-6.939241250961644
09:57:24.558500,0.6873383,8.109874,5.334798,-0.37047887,-0.06474981,-0.39766157,0.4547865984205652,-56.44557464067206,-7.3415748246817145
09:57:24.565865,0.61675006,8.190034,5.4550376,-0.43614495,-0.048562355,-0.41018394,0.8998305723203419,-56.16599792247052,-6.450505357354089
09:57:24.577509,0.4941179,8.2049885,5.4676,-0.52166355,-0.044439137,-0.41675055,2.0320310103936876,-56.21388779383606,-5.163906038493372
09:57:24.586248,0.3385844,8.152945,5.814559,-0.62016267,-0.03939965,-0.4150707,3.8850999654756397,-54.458242309197644,-3.332595718229553
09:57:24.597814,0.20458634,8.023732,6.3643103,-0.6952969,-0.033749312,-0.40880954,5.791503093021872,-51.56464291260549,-1.8411891216811844
09:57:24.607760,0.17826529,7.8107715,6.7011,-0.72965705,7.635591E-4,-0.4007158,7.396260734271421,-49.36268213174718,-1.5238454060725808
09:57:24.618571,0.20638095,7.533802,6.838089,-0.74905145,0.06062659,-0.40789327,7.247419813199443,-47.75842437496751,-1.728723973859695
09:57:24.628452,0.1160519,7.314859,6.927222,-0.77592874,0.14049487,-0.43339613,7.223116292585244,-46.55506115642715,-0.9597876804020063
09:57:24.638861,-0.10767702,7.151549,7.1342006,-0.8170082,0.19699824,-0.47264308,8.659890980727031,-45.066318973985325,0.8647038165534654
09:57:24.649043,-0.4552345,7.001399,7.353144,-0.87732935,0.2081462,-0.5192202,11.545979730553103,-43.541574864428355,3.5426707793145775
09:57:24.662780,-0.93619186,6.9684978,7.4656067,-0.99583375,0.20738265,-0.57999945,16.25528502647653,-42.8046145284569,7.147617515934039
09:57:24.669351,-1.3471591,6.9122663,7.7647095,-0.99583375,0.20738265,-0.57999945,19.87838448491918,-41.25440064348496,9.842706428923051
09:57:24.681926,-1.7180467,6.8105717,8.078169,-0.99186325,0.32176378,-0.60702944,22.189889547233452,-39.51034940496264,12.006642692898259
09:57:24.692052,-2.2217357,6.7812595,8.341978,-0.9303204,0.4602734,-0.5980195,25.7864315226358,-38.150537288388556,14.913514854595034
09:57:24.700790,-3.2560334,6.8129644,8.899506,-0.83487546,0.6336013,-0.5775561,31.002115944566572,-35.713754603865205,20.095893566585527
09:57:24.710343,-3.8350966,6.95115,9.078967,-0.72843534,0.7785248,-0.5286883,32.5335194885643,-35.19491635903811,22.8999508907061
09:57:24.719020,-4.154538,7.001399,8.949157,-0.645971,0.8593094,-0.4550812,33.51738774793713,-35.36004642750692,24.90251625157694
09:57:24.728598,-4.2388854,6.9152575,8.623733,-0.6230642,0.85426986,-0.38025242,33.89980662447156,-35.74063822843837,26.175832560049276
09:57:24.738149,-4.1521454,6.8075805,8.309675,-0.6720847,0.76187927,-0.30023143,33.79438265463241,-36.235502509278724,26.55019864355226
09:57:24.750458,-4.1521454,6.8075805,8.309675,-0.6720847,0.76187927,-0.30023143,32.89716217507036,-36.235502509278724,26.55019864355226
09:57:24.759856,-3.2859437,6.3218374,7.8909307,-0.8441909,0.53464407,-0.18050537,29.468967287235905,-36.48625582918282,22.607837360282996
09:57:24.768665,-2.7068806,6.06102,7.8753777,-0.91596544,0.50242186,-0.16737215,26.501065677757772,-36.048024061845624,18.96858279690597
09:57:24.780423,-2.3940191,5.879165,8.036893,-0.94391173,0.5402944,-0.17882554,23.775166208309656,-35.033495083288614,16.587672767340614
09:57:24.790582,-2.274976,5.8468623,8.273783,-0.9280297,0.6343649,-0.18676655,21.87014277897577,-34.269931160499965,15.374228189585319
09:57:24.800886,-2.2941186,5.7810597,8.663813,-0.8649597,0.76875126,-0.1965401,21.229448836713768,-32.823423452790905,14.831154726035727
09:57:24.812276,-2.455036,5.775676,8.860622,-0.76462805,0.8951967,-0.19608197,22.583559452878184,-32.135811233572795,15.486596754263076
09:57:24.820872,-2.5357938,5.816354,8.822935,-0.66719794,0.9820897,-0.17913096,22.264353977112226,-32.35761479667979,16.035144614432433
09:57:24.830091,-2.5579274,5.912665,8.548359,-0.59542334,1.015839,-0.14828317,20.710871846622428,-33.530143126212124,16.658773329053155
09:57:24.841628,-2.5627131,6.0430737,7.7964144,-0.5801522,1.0085088,-0.09743014,20.8791318492784,-36.36605132997976,18.19590569421723
09:57:24.851983,-2.548356,6.1597238,7.1132636,-0.65192676,0.9979717,-0.034818295,21.88034878914306,-39.18737366477483,19.710273038877656
09:57:24.863234,-2.8205397,6.407979,6.5258255,-0.83518094,0.9072609,0.09361234,24.445848096122596,-42.03005400110453,23.374579028582996
09:57:24.872140,-1.9202402,5.7948184,6.943373,-1.022711,0.9969027,0.09941539,16.764685657417957,-38.81277535484007,15.459168422103598
09:57:24.882019,-2.0524435,6.0011992,7.605587,-1.0724951,0.9938485,0.09086353,16.153621075775472,-37.30015483105987,15.102096377579086
09:57:24.892509,-1.8687944,5.8301125,7.810173,-1.1225846,1.0326372,0.0827698,13.368719870955848,-35.97903232103933,13.456556103682212
09:57:24.902503,-2.1505494,5.8337016,8.48794,-1.0950965,1.2045908,0.031458635,12.991659277825296,-33.67319119309429,14.217574927231388
09:57:24.912567,-2.8528428,6.1387863,9.215358,-0.9846858,1.4096828,-0.0053449133,15.552173400484369,-32.47071931424062,17.20120816991535
09:57:24.924265,-3.4983068,6.404988,9.550353,-0.8597675,1.5533845,0.013133216,17.87873902991852,-32.20009697404096,20.117849209672535
09:57:24.931225,-4.080959,6.7375903,9.903295,-0.8015843,1.5559807,0.0749815,18.469837261069763,-32.17087400967706,22.395625090317992
09:57:24.943766,-4.310072,6.6149583,9.041879,-0.9535326,1.1968025,0.24464433,19.979047812906828,-33.44075302544958,25.486147378418067
09:57:24.951474,-3.6370904,6.181857,9.11486,-0.9903361,1.2815576,0.25502872,15.878567650351767,-32.20764433307382,21.753418261154835
09:57:24.963322,-3.830909,6.9882383,10.844871,-0.9228375,1.2814049,0.23761958,12.458216381005421,-31.282351776023024,19.455571869633296
09:57:24.975927,-4.338187,6.988837,10.97169,-0.8247965,1.0552386,0.3115321,13.7047822535934,-30.640976522391316,21.573755257679526
09:57:24.983015,-4.193422,6.7130637,10.073783,-0.7985301,0.73637635,0.4407263,13.889142719670385,-31.6004610064272,22.600537595607545
09:57:24.993587,-3.7716868,6.352944,9.209376,-0.8255601,0.57282203,0.5493044,12.319420106881593,-32.553006018266345,22.271482987058427
09:57:25.003134,-3.2596226,6.0394845,9.142975,-0.8365553,0.5974086,0.59252185,10.007438638872712,-31.889893687601074,19.621996258949828
09:57:25.013738,-3.0185459,5.9754763,9.714262,-0.7627955,0.72599196,0.5609105,7.6843990945975795,-30.43075354502208,17.261766334643976
09:57:25.025264,-2.7475586,6.257231,10.362119,-0.63558656,0.712706,0.48379102,4.545909241730149,-30.271521344901572,14.850479038744986
09:57:25.033861,-4.168297,7.195816,10.320843,-0.47203222,0.61710846,0.46607646,10.163838871808602,-32.881801079627,21.99239121228795
09:57:25.047189,-5.075775,7.3728848,9.78485,-0.31855685,0.6696413,0.599852,14.230597536657664,-33.777102276032274,27.4174909417186
09:57:25.054449,-5.6590257,7.4153576,10.082756,-0.25350162,0.6927008,0.7936433,15.054734138326925,-32.67367155523838,29.30365963384867
09:57:25.064759,-5.0422754,7.0618176,10.472787,-0.10781454,-0.40987852,1.296676,11.508128529720185,-31.280811568365188,25.709165007650032
09:57:25.074141,-5.4221363,7.5266237,9.7399845,0.06123744,-0.37597647,1.4533583,13.368365554892653,-34.02661591660201,29.104180544043864
09:57:25.084755,-5.3515477,7.5176506,9.820743,0.32894126,-0.06062659,1.5627,12.611957962806885,-33.9077228137196,28.586978129522986
09:57:25.095493,-4.7042894,7.134799,10.455439,0.67055756,0.32497075,1.6665441,8.958842384282967,-31.894439178493716,24.224748042500114
09:57:25.104444,-3.9116669,6.6676,10.504492,1.0401201,0.5386146,1.7694718,4.838604192006351,-30.745638926138007,20.424343703393102
09:57:25.115792,-3.4522448,6.3104715,10.413564,1.3615786,0.44790375,1.8166597,2.7684238003337924,-29.907588375355783,18.3410933178569
09:57:25.126223,-3.4037902,6.0729837,9.375079,1.592937,0.158973,1.8533106,3.433740147666864,-31.336815704464705,19.95433448094243
09:57:25.136492,-3.1495528,5.9084773,8.351549,1.7395403,-0.15347537,1.8760647,2.7968930960114635,-33.503068256342196,20.662563626170222
09:57:25.147018,-2.8187451,5.782854,7.7162547,1.8413991,-0.4654656,1.8346797,1.580598408381569,-35.14324597796696,20.06723067773357
09:57:25.155887,-2.661417,5.587839,6.774679,1.9017203,-0.7124006,1.7511464,3.687479967785545,-37.513372846380165,21.447265276892768
09:57:25.165991,-2.1397817,5.4586267,6.031708,1.9026365,-0.85136837,1.6331002,2.686563342800955,-40.46114930346885,19.532421743079695
09:57:25.175616,-1.5762719,5.474778,5.0368915,1.8288767,-0.8751914,1.4550382,1.1097063839806722,-46.04962715784621,17.37726995615077
09:57:25.186435,-1.1958131,5.64766,4.3441696,1.6828842,-0.6891884,1.2255123,-1.3782831892456195,-51.41684786425017,15.39055234170165
09:57:25.196387,-1.1270195,5.919843,3.9403806,1.4774868,-0.42331716,0.99568105,-0.25263669120687127,-55.30462569076728,15.961481024233846
09:57:25.205964,-1.3663018,6.206982,3.81057,1.2510152,-0.11575556,0.79959905,3.499458093426611,-56.888133332848454,19.725586322996826
09:57:25.217546,-1.5224334,6.5294147,3.9367914,1.0214894,0.17348062,0.67452806,3.3509501440766702,-57.11950940607722,21.14244930216073
09:57:25.227503,-1.6546369,6.5665035,4.3465624,0.8057075,0.25563958,0.5969505,2.549954223315411,-54.691226891975944,20.840683006893105
09:57:25.238993,-1.7455641,6.2123656,4.6139603,0.4162924,-0.14248012,0.56564456,2.41801759355239,-51.54761525100465,20.722749545589082
09:57:25.249541,-1.2819548,5.9958153,4.0648074,0.21181129,-0.40942037,0.5598415,-0.33876169474188256,-54.592619450928474,17.504176578476898
09:57:25.260123,-0.738784,5.79422,3.6340995,-0.033596598,-0.6293254,0.50623965,-6.381175949070697,-57.37981816063016,11.491189660578554
09:57:25.267058,-0.738784,5.79422,3.6340995,-0.033596598,-0.6293254,0.50623965,-6.3194822653925575,-57.37981816063016,11.491189660578554
09:57:25.278160,-0.25184458,5.809175,3.9804604,-0.4378248,-0.73698723,0.3281777,-12.502177186050917,-55.52758014074942,3.6202905431464836
09:57:25.286668,-0.3900301,5.89412,4.7078786,-0.51891476,-0.65895146,0.2483094,-11.46779370135032,-51.28859398711026,4.735925104439904
09:57:25.296145,-0.5162515,5.916852,5.407181,-0.5080722,-0.58458084,0.16584504,-10.705186858819118,-47.44755514508355,5.453792927247053
09:57:25.309033,-0.95473623,6.1531434,6.0783677,-0.4315636,-0.530979,0.083686076,-7.0725541638424225,-45.00117262968174,8.926580839512058
09:57:25.317074,-1.6420746,6.50429,6.538986,-0.31596074,-0.53785104,0.0503949,-1.6732106508850642,-43.97185970666624,14.096660088354652
09:57:25.327081,-1.9806589,6.5754766,6.617351,-0.20478654,-0.65498096,0.07650862,1.4954471870509605,-43.58972086788778,16.66312245200716
09:57:25.340393,-2.0961127,6.573682,6.282954,-0.12736166,-0.8105943,0.12125318,2.7736721603807126,-44.78422874616921,18.449676250187178
09:57:25.349074,-1.8245273,6.6646094,5.855237,-0.100026235,-0.9000834,0.15607147,2.0907524945658142,-47.37905517789749,17.307349309617347
09:57:25.360292,-1.4261223,6.803393,5.651847,-0.10766183,-0.943759,0.16767757,-1.0765815673316972,-49.41076666350407,14.161742399634765
09:57:25.368740,-1.0025927,6.782456,5.6745787,-0.11957335,-0.9665131,0.16385978,-4.832108255218847,-49.64831381264794,10.0196954133383
09:57:25.379938,-0.5724828,6.658029,5.8875403,-0.1007898,-0.99079424,0.14034216,-7.540594584264839,-48.38059655174772,5.553771955657231
09:57:25.388807,-0.29491538,6.524031,6.0676003,-0.029931515,-0.9891144,0.08689302,-9.766799121582114,-47.04227904049167,2.7826683732912656
09:57:25.400223,-0.40498522,6.5198436,6.0418773,0.09071082,-0.9274188,0.026724568,-8.85240925399395,-47.114989819301044,3.834782388746979
09:57:25.412778,-0.35712877,6.6622167,5.9264235,0.379947,-0.60534966,-0.024892027,-8.324786532120573,-48.293501394546304,3.4484978385857343
09:57:25.421868,-0.31585258,6.9858456,5.986244,0.5311317,-0.46729815,-0.043981,-7.939457994999719,-49.36702613205931,3.0203000460261182
09:57:25.430901,-0.51266223,7.031309,5.843871,0.67483354,-0.29290125,-0.040010497,-6.062523291740685,-50.16130200045092,5.013521921555793
09:57:25.440608,-0.4444668,7.111469,5.7607207,0.7962394,-0.09239065,-0.026571855,-6.89732224559116,-50.90724403518094,4.411898795780384
09:57:25.450159,-0.4325027,7.222137,5.790631,0.88878274,0.08857285,-0.018936265,-7.316888813473996,-51.199931301494324,4.271495292767486
09:57:25.460509,-0.59940207,7.295118,5.921638,0.9704836,0.20493926,-0.0053449133,-5.523247413369621,-50.78989113995636,5.7799259223787
09:57:25.468987,-0.6580262,7.153343,5.812166,1.0286667,0.23975755,0.02107423,-4.571588618575281,-50.727094380727266,6.459255256567698
09:57:25.478975,-0.5694918,7.071389,5.4293146,1.0340117,0.24128467,0.037567105,-5.460428456025721,-52.33192245830263,5.987973484497288
09:57:25.490919,-0.3804588,7.004988,5.006383,0.9698727,0.21807247,0.04291202,-7.776253186103204,-54.36897515184016,4.3458248264101496
09:57:25.498969,-1.4518452,6.524629,4.935795,0.8524374,0.21501824,0.07070557,3.756264668482628,-51.743006472591205,16.391045281514288
09:57:25.510301,-1.2849457,6.6203423,5.5860443,0.7484406,0.2197523,0.1951657,0.1625486971895848,-49.11382077424318,12.954280213818754
09:57:25.520744,-0.5180461,7.1748786,5.9096737,0.6592569,0.019088976,0.25411245,-8.110110271412488,-50.4153611319133,5.009781539211565
09:57:25.529819,0.18604197,7.984849,5.758926,0.5854971,-0.20478654,0.25243264,-14.281934946006771,-54.185488949976936,-1.8502952579486924
09:57:25.540258,1.338186,8.8492565,5.0255256,0.49982578,-0.25533417,0.1524064,-26.019100209164993,-59.5575829963537,-14.910615439292364
09:57:25.549492,1.4757733,8.95454,3.8446677,0.32970482,-0.20768806,-0.028862532,-31.02376081404634,-65.30237997517057,-20.999269754137046
09:57:25.560140,0.1268196,8.2348995,3.3080773,0.04550812,-0.16263808,-0.11835165,-13.411840562733431,-68.09941074218249,-2.1954356023234265
09:57:25.569543,-0.6801598,8.114061,3.6376886,-0.2599155,-0.08108997,-0.08903099,-1.1308083601431325,-65.48282674285312,10.59063861002248
09:57:25.580454,-1.5720844,8.637491,5.0416775,-0.49845135,-0.10659285,-0.04031592,5.418090674681751,-58.557745754701386,17.318403970789014
09:57:25.591181,-1.5918252,8.933005,4.7898326,-0.65482825,-0.23792501,0.04214846,6.004663051734214,-60.5322578211037,18.383411462407008
09:57:25.601797,-1.0767702,8.587242,4.3118663,-0.7780667,-0.013591352,0.16951011,2.5101156508774305,-62.63642053833118,14.021280413127098
09:57:25.612541,0.29671,8.213962,4.0737805,-0.8171609,0.30817243,0.16844113,-14.604629794664962,-63.56012849149454,-4.1657289596961915
09:57:25.621724,1.0319048,8.075178,5.3682976,-0.7808155,0.61573404,0.18585028,-22.798017147532832,-55.90356156399111,-10.880791022380146
09:57:25.631716,1.5571294,7.8089767,6.5342007,-0.67040485,0.7652389,0.14446537,-25.98731592386234,-49.2983315044819,-13.403843264988993
09:57:25.641117,1.4464613,7.745567,6.951748,-0.5467083,0.8826743,0.09315421,-24.348642551402268,-47.487402468701404,-11.753915448324033
09:57:25.650732,1.253839,7.8556366,6.8931236,-0.44423866,0.9460497,0.059099473,-23.029726192483636,-48.27108471369033,-10.309222009613261
09:57:25.661246,1.2400804,7.6343007,6.40439,-0.4393519,0.93245834,0.01099525,-23.986562270668845,-49.48683789538509,-10.95855528740168
09:57:25.673324,0.91106725,7.3214393,6.000601,-0.5276193,0.8698465,-0.07314896,-22.558340686915205,-50.341748768133485,-8.63324470522752
09:57:25.682597,0.75194454,7.218548,6.2554364,-0.5570927,0.79440683,-0.103996746,-21.27966951013358,-48.88499577666941,-6.8544401835477045
09:57:25.692253,0.85064846,7.4416785,6.084948,-0.53021544,0.73622364,-0.06688777,-22.64201050424786,-50.455693398962225,-7.958118925585841
09:57:25.702303,1.2490535,7.2616186,5.582455,-0.52151084,0.7464554,-0.029473381,-27.190861849962992,-51.77002328585319,-12.611992967526382
09:57:25.714003,1.474577,6.8488564,5.2516475,-0.55373305,0.8052494,-0.037414394,-29.78349749851499,-51.464594301643146,-15.683874815607847
09:57:25.724570,1.3232309,6.477969,5.539983,-0.6164976,0.8454126,-0.11285403,-28.2113604138546,-48.67612859185042,-13.433473479382155
09:57:25.734022,0.98943216,6.2350974,6.478567,-0.6875086,0.77898294,-0.19974706,-25.969731601844142,-43.57296982894832,-8.683339020147686
09:57:25.743854,0.25064817,6.862017,7.3375907,-0.71789825,0.6300889,-0.23700874,-19.788973893589127,-43.065100867928265,-1.9564323422258707
09:57:25.754227,-0.14177474,7.033104,7.900502,-0.6242859,0.51021016,-0.19226417,-16.379135139149078,-41.67121293758499,1.028064065614452
09:57:25.763218,-0.54376894,7.1419773,8.118847,-0.46057883,0.48226392,-0.11300674,-14.54318029024965,-41.273822286389894,3.8317267328670446
09:57:25.773824,-0.58265233,7.216753,8.189436,-0.24571331,0.4873034,0.015729317,-14.393590609689909,-41.31564011958329,4.069555627314181
09:57:25.784638,0.07238288,6.8195443,7.6133633,0.07849387,0.46607646,0.19730367,-18.205737751527465,-41.85058395047328,-0.5447144164976869
09:57:25.795618,1.1413764,6.09093,6.1657057,0.09468132,0.40254834,0.21104772,-27.10408941919986,-44.16792711698062,-10.487693998852048
09:57:25.804212,1.1724831,6.192625,5.6817575,0.03863609,0.30343837,0.21776704,-27.87465257834048,-46.867870160035395,-11.659843252885448
09:57:25.813942,1.0666007,6.437291,5.359923,-0.059404895,0.20127417,0.23991026,-28.09100052784793,-49.66999966326273,-11.254582516219203
09:57:25.824400,0.9445667,6.579066,5.3976097,-0.17684028,0.10552386,0.2727433,-27.851795350283034,-50.209434343531996,-9.926091085857859
09:57:25.833715,1.0767702,6.5078793,5.553143,-0.26923093,0.032069482,0.29778802,-28.241146868825023,-49.00320244554024,-10.97363634508907
09:57:25.843416,1.2466606,6.5276203,5.7349977,-0.3141282,0.035429142,0.29412296,-29.54740517966433,-48.04154596134829,-12.264028126486435
09:57:25.855783,1.3076776,6.530013,6.0233326,-0.3283304,0.092543356,0.2699945,-30.33260714174358,-46.65321438989482,-12.248945361251755
09:57:25.866037,1.2376875,6.498308,6.227919,-0.32100025,0.20127417,0.23319094,-29.541637084910256,-45.66263205456787,-11.240064095364694
09:57:25.875500,1.0666007,6.5455666,6.713662,-0.2935121,0.30664533,0.19684553,-27.735735068358885,-43.91679813667218,-9.027146837304032
09:57:25.885528,0.8392825,6.5198436,7.2753773,-0.25105822,0.34299073,0.15820944,-25.660897768332845,-41.677008353095744,-6.58051373933705
09:57:25.896319,0.61435723,6.687341,7.4883385,-0.21440738,0.33764583,0.14232741,-24.291818792602346,-41.67047869224921,-4.690148322848832
09:57:25.904857,0.41515473,6.7262244,7.503892,-0.19745637,0.29656634,0.14446537,-23.943253748689084,-41.828416571522006,-3.166675268807723
09:57:25.916410,0.2961118,6.678966,7.4715886,-0.19669282,0.25411245,0.16401249,-23.114275396671932,-41.77167135989754,-2.2695416607141836
09:57:25.926421,0.38285163,6.608378,7.3776703,-0.19791451,0.220974,0.19333316,-23.283493333358997,-41.81337307987505,-2.970602308964636
09:57:25.936015,0.4336991,6.47438,7.11446,-0.19959435,0.20310672,0.2171562,-24.1479015841483,-42.25027637541867,-3.4884467612674928
09:57:25.947240,0.7112665,6.3278193,6.5455666,-0.21761434,0.23792501,0.23823044,-27.097803937616156,-43.862928434688286,-6.2016474149446745
09:57:25.957190,0.91166544,6.101698,6.5168524,-0.26205346,0.2832804,0.22723518,-28.494147320966054,-42.83870741769903,-7.963626619377809
09:57:25.968446,0.8285148,6.305686,6.5258255,-0.3165716,0.42499697,0.20478654,-27.245030372723072,-43.78824373120878,-7.2355267463071575
09:57:25.977312,0.5563313,6.458228,6.908079,-0.3165716,0.42499697,0.20478654,-25.530724608036156,-42.98001720143742,-4.60428857611354
09:57:25.987857,0.23569304,6.6442704,7.3011003,-0.3284831,0.4512634,0.19424942,-24.117039374383598,-42.28849811401406,-1.8489716953535908
09:57:25.996882,0.08255238,6.7573314,7.3459654,-0.30221668,0.4124746,0.19577655,-22.976956150956116,-42.60821243887319,-0.6438505568756023
09:57:26.006007,0.0059820567,6.7926254,7.170093,-0.2661767,0.387888,0.19944163,-22.307573706632773,-43.45143002776253,-0.04780224283993792
09:57:26.015653,0.05503492,6.803393,7.0821567,-0.23105298,0.3852919,0.2041757,-23.133910482988426,-43.84903241482189,-0.4452323643909074
09:57:26.026074,0.232702,6.704091,7.033104,-0.20219044,0.36467582,0.19669282,-24.51945362971324,-43.61234245441886,-1.895035344889803
09:57:26.036006,0.45224348,6.6352973,6.859026,-0.18310146,0.32222193,0.18233791,-26.878199695421905,-43.98805408518833,-3.7722835965204236
09:57:26.046342,0.6155536,6.573084,6.594021,-0.19760908,0.27106348,0.1511847,-28.498404236366262,-44.78461465185732,-5.333120986972676
09:57:26.058475,0.59641105,6.617351,6.4480586,-0.2441862,0.22311196,0.11514471,-28.490354858429402,-45.62036684398383,-5.284517787725688
09:57:26.068306,0.5066802,6.7381887,6.5479593,-0.29885703,0.17653486,0.08704574,-27.471881445626707,-45.73482373900032,-4.424722475947082
09:57:26.078610,0.46779683,6.8057857,6.9708905,-0.33443886,0.1293469,0.06704049,-27.18746895349279,-44.249035613374524,-3.8392019480268003
09:57:26.090964,0.48275197,6.849455,7.338787,-0.33504972,0.072232686,0.045813546,-27.383671260043283,-42.963037351160764,-3.7635456501378615
09:57:26.099602,0.5629115,6.8691955,7.4452677,-0.3103104,0.022143213,0.024281178,-27.621004965775594,-42.61405908080272,-4.323713796519526
09:57:26.108566,0.701097,6.901499,7.3340015,-0.28419667,-0.0132859275,-0.0021379655,-28.333620799997828,-43.129728117854924,-5.460621408869773
09:57:26.118703,0.76630145,6.9320073,7.2843504,-0.27091077,-0.018172706,-0.03436016,-29.237516081926266,-43.42281836532934,-6.005331983386053
09:57:26.129726,0.80159557,6.927222,7.3453674,-0.25319618,-0.0077883024,-0.062764555,-29.278299141460412,-43.15261949685822,-6.228008530046338
09:57:26.140210,0.8578269,6.9038916,7.422536,-0.22250111,0.014660334,-0.0917798,-29.679832302387123,-42.73718007078137,-6.592460167082226
09:57:26.149702,0.910469,6.812366,7.414759,-0.17943639,0.04871507,-0.11865708,-30.23025675703094,-42.36195679853755,-7.000388519506183
09:57:26.159596,0.92482597,6.74776,7.391429,-0.13438639,0.097888276,-0.18783553,-29.92193860280198,-42.17197167167906,-7.131864965273874
09:57:26.169738,0.5084748,6.8339014,7.5379896,-0.120642334,0.09009997,-0.21028417,-27.19915540716268,-42.1305773102142,-3.859038951810633
09:57:26.179036,0.30149564,6.8967133,7.508079,-0.10140064,0.07986828,-0.22341739,-25.688587355228076,-42.54672366087015,-2.299543053200053
09:57:26.188810,0.12023934,6.937989,7.442875,-0.08429692,0.072538115,-0.22311196,-24.682754915031783,-42.98554965466513,-0.9255304397329842
09:57:26.198178,0.034097724,6.940382,7.4536424,-0.0645971,0.06261184,-0.22036316,-24.187421058685995,-42.95752197340598,-0.2621056812740361
09:57:26.209410,0.016151553,6.914061,7.3579297,-0.040163208,0.049173206,-0.2157818,-23.00580516246296,-43.2185649732947,-0.12577102333533546
09:57:26.220982,0.01794617,6.896115,7.192825,-0.024128467,0.04046863,-0.21303298,-23.452096553020763,-43.79344833535633,-0.14295325798678846
09:57:26.228752,0.0035892338,6.869794,6.999604,-0.016798299,0.034971006,-0.20677179,-23.637794028627777,-44.46375627031221,-0.029379938652890843
09:57:26.240558,-0.0017946169,6.820741,6.827321,-0.03191677,0.015729317,-0.19730367,-23.705040656101136,-44.972379967235554,0.015060662168897327
09:57:26.250581,-0.024526432,6.823134,6.754938,-0.06536066,-0.012064233,-0.18905723,-23.901405179644417,-45.287576121958715,0.20803372831747646
09:57:26.261086,-0.071186475,6.835696,6.83091,-0.10750912,-0.043370154,-0.18111621,-23.04195393864525,-45.01850764979523,0.5970708046935965
09:57:26.270560,-0.08733802,6.8225355,6.9744797,-0.140953,-0.06994201,-0.17485502,-22.612089153041328,-44.36678807466554,0.7174497405247507
09:57:26.281290,-0.10887343,6.8189464,7.132406,-0.16691402,-0.08185353,-0.17088452,-22.665533675749387,-43.709559951970235,0.8745300575307338
09:57:26.291414,-0.18424734,6.8572316,7.4344997,-0.17378604,-0.072538115,-0.17027368,-21.970853918287606,-42.67821163258206,1.4196563130910311
09:57:26.301573,-0.34157544,6.9326053,7.776674,-0.16279079,-0.068873025,-0.15973656,-21.338569646441186,-41.68834988221255,2.514990271510704
09:57:26.312682,-0.40079778,6.9092755,8.103892,-0.1317903,-0.08597675,-0.14339639,-21.13991700952595,-40.41593686625795,2.831395583160371
09:57:26.323065,-0.3469593,6.815955,8.186444,-0.08154811,-0.10689827,-0.12995775,-21.477888430036522,-39.75516387538341,2.426867384282611
09:57:26.332431,-0.12861422,6.701698,8.10449,-0.023823043,-0.117588095,-0.12171131,-22.461577396943635,-39.5842008253634,0.9091791803033853
09:57:26.342657,0.21714866,6.4923263,7.7880397,0.06383354,-0.118962504,-0.17241164,-24.257567101462026,-39.804576878933865,-1.597125865347413
09:57:26.352385,-0.01375873,6.4343,7.3190465,0.11346488,-0.08735116,-0.19821994,-22.9897832462174,-41.31920547833004,0.1077075075179657
09:57:26.361533,-0.05503492,6.425327,6.7609205,0.1369825,-0.009162709,-0.21685077,-22.510182730624738,-43.541178713456496,0.4663860205393922
09:57:26.371312,-0.24047868,6.3750777,6.265606,0.11850437,0.06474981,-0.23746687,-20.43941793089132,-45.47510921090517,2.197976432694671
09:57:26.381336,-0.5270192,6.332007,5.8241305,0.048256934,0.13102673,-0.25136364,-17.63440096519236,-47.27597054784907,5.1705505318953255
09:57:26.391787,-0.7962117,6.3607206,5.705087,-0.07773031,0.19302773,-0.24892026,-15.118630558012395,-47.835465493710664,7.944979349170028
09:57:26.401104,-1.11685,6.3792653,6.0807605,-0.23975755,0.22555535,-0.23410721,-13.352061039570188,-45.89750859974627,10.407488794975881
09:57:26.413136,-1.4207385,6.370292,6.9744797,-0.3892624,0.2081462,-0.20921518,-12.513595554795884,-41.82826289226568,11.513918822589064
09:57:26.423509,-1.5577276,6.3571315,7.996215,-0.47875154,0.13728791,-0.17424418,-13.344753590931921,-37.966634444985964,11.023617961887929
09:57:26.432810,-1.7162521,6.3517475,8.772088,-0.50196373,0.032527618,-0.13285927,-14.40194051595025,-35.39810424156223,11.070038488808274
09:57:26.442531,-1.8903298,6.361917,9.077771,-0.48302746,-0.0865876,-0.0723854,-14.097577041250725,-34.45424723034734,11.763010698977551
09:57:26.453309,-1.6283158,6.1848483,8.9826565,-0.4512634,-0.19562383,-0.005803049,-15.04380242056032,-34.11728326273935,10.274623686372562
09:57:26.463631,-1.268196,6.0023956,8.805588,-0.4227063,-0.2678565,0.03436016,-17.03989276209799,-34.00738551899384,8.195483367169416
09:57:26.473805,-0.9870393,5.8935223,8.71466,-0.39964682,-0.30695075,0.04566083,-18.176678711703644,-33.90032571884848,6.461893844021439
09:57:26.484200,-0.72323066,5.8672013,8.895916,-0.3616216,-0.35688752,0.03955236,-19.470582917881693,-33.3197118280732,4.647877989622915
09:57:26.494802,-0.7471589,5.712266,8.650054,-0.29412296,-0.36391225,0.01175881,-18.682223700858604,-33.34186213155155,4.936739069340626
09:57:26.506878,-0.59342,5.7667027,8.261818,-0.25121093,-0.27824092,-0.03420745,-18.366423074393893,-34.84567171130243,4.108317804627649
09:57:26.515902,-0.29790643,5.776872,8.191829,-0.21639264,-0.21807247,-0.07650862,-20.00632758845186,-35.17363348958435,2.082716990450706
09:57:26.525464,-0.2117648,5.6985073,8.36112,-0.1487413,-0.18600298,-0.10689827,-21.259762923797577,-34.267772820722236,1.4508384745296665
09:57:26.534873,-0.11844472,5.631508,8.109874,-0.07040015,-0.12720895,-0.13896775,-21.250419225013,-34.77330585704615,0.8367454510422232
09:57:26.543755,-0.2105684,5.5914283,7.862217,-0.0036650836,-0.056808796,-0.17409147,-19.960210151175932,-35.409865827313,1.5341470388882525
09:57:26.554183,-0.42831525,5.5860443,7.6366935,0.033443887,-0.007482879,-0.20616095,-18.752882007822382,-36.14164546479899,3.2101553992903775
09:57:26.565124,-0.62153566,5.5872407,7.3752775,0.041843038,0.015271181,-0.22433366,-17.799389307235895,-37.04870141676585,4.817096780083628
09:57:26.577336,-0.9068798,5.651847,7.2341013,0.038330667,0.032222193,-0.23792501,-16.18042103053131,-37.78322337520361,7.145424598323642
09:57:26.583884,-1.3369896,5.762515,6.801,-0.012216945,0.012522369,-0.19760908,-12.375642809034552,-39.73983351579131,11.121791685923109
09:57:26.594678,-0.887139,5.395217,7.1629148,-0.068567604,-0.018172706,-0.18905723,-15.799856550356541,-36.77826349167378,7.060225245503726
09:57:26.604410,-1.224527,5.4574304,7.313064,-0.061084725,-0.0061084726,-0.23059484,-13.420647237894517,-36.35348378190694,9.505638300930215
09:57:26.614675,-1.3603196,5.5704913,6.728617,-0.12430742,-0.042606596,-0.21364383,-11.289456608347642,-39.05806452340815,11.42939181651557
09:57:26.624504,-1.2927225,5.5597234,6.847062,-0.24128467,-0.028098974,-0.20188501,-11.859330880426716,-38.586040395152324,10.691570022935052
09:57:26.635034,-1.346561,5.5190454,7.50449,-0.33291176,-0.036956258,-0.1847813,-12.113568450581162,-35.899713334207966,10.172561023378709
09:57:26.645852,-1.2717853,5.477171,8.0201435,-0.38193226,-0.065055236,-0.16767757,-13.271822538521816,-33.99962983919129,9.010587897434982
09:57:26.655212,-1.2987045,5.5070815,8.462815,-0.4086568,-0.10262234,-0.15866758,-13.811615803722509,-32.7494900701201,8.724553235373188
09:57:26.665589,-1.2675978,5.5340004,8.838489,-0.40911496,-0.15484978,-0.14400724,-14.661769449713997,-31.789954359665447,8.161588553413228
09:57:26.676510,-1.1814562,5.5040903,9.017352,-0.37017342,-0.19226417,-0.13117945,-15.629672141901919,-31.18300667454519,7.464391871242299
09:57:26.686123,-1.0193424,5.4221363,9.032308,-0.3023694,-0.19562383,-0.12781979,-16.505932478448486,-30.81683681804622,6.438880375386727
09:57:26.697499,-0.8991031,5.3300123,8.986844,-0.16004199,-0.18340689,-0.17225893,-17.012609571458373,-30.546743817507235,5.7132363822095185
09:57:26.707089,-0.9098708,5.2486563,8.319844,-0.11346488,-0.19715095,-0.20402299,-15.175806071554572,-32.09268541915334,6.241151094669912
09:57:26.717052,-0.9882358,5.331807,7.880163,-0.09910997,-0.21165858,-0.22448637,-14.41580238487079,-33.875542377445086,7.14803415747341
09:57:26.727210,-1.0223335,5.415556,7.606185,-0.10582929,-0.22631891,-0.23380178,-14.143440907753716,-35.20864162417525,7.655143686835122
09:57:26.735957,-0.98524475,5.3982077,7.479964,-0.12247488,-0.2441862,-0.2443389,-12.80904819394948,-35.58405614171583,7.503679973121859
09:57:26.746445,-1.2059826,5.697909,7.426125,-0.13713521,-0.2625116,-0.25365433,-11.091968518685894,-37.13872331002662,9.224152544855649
09:57:26.757486,-1.5631114,5.689534,7.425527,-0.13927318,-0.27320144,-0.23471805,-8.626328284919236,-36.8618513467364,11.887494311695619
09:57:26.766137,-1.0408778,5.2941203,7.3052874,-0.15225367,-0.290916,-0.23609246,-11.451113525623503,-35.657586543225605,8.109081474168756
09:57:26.779015,-1.1324034,5.2025948,6.9673014,-0.17164809,-0.28205872,-0.299926,-10.43818793397415,-36.391859199758656,9.231623918033996
09:57:26.788219,-1.3094722,5.599803,7.4566336,-0.18371232,-0.26266432,-0.3141282,-10.011132917440042,-36.48900156522916,9.96024971567074
09:57:26.798629,-1.0875379,5.5501523,7.893324,-0.176993,-0.30313295,-0.31825143,-12.362757657165323,-34.85970775004681,7.844790719329696
09:57:26.808914,-1.1318051,5.386244,7.760522,-0.18142164,-0.37628192,-0.33886752,-11.675416937966723,-34.48094643981292,8.297595549034753
09:57:26.818484,-1.1682956,5.452645,7.6133633,-0.18768282,-0.42224815,-0.35352784,-11.299415877931168,-35.29496838509504,8.724172452326961
09:57:26.829791,-1.2293127,5.582455,7.3549385,-0.20112146,-0.42346987,-0.35856733,-9.112179277376105,-36.81936757009892,9.488769441227575
09:57:26.838568,-1.4494523,5.7170515,7.390831,-0.23945212,-0.4291202,-0.3463504,-6.773881090495166,-37.20116489941888,11.095736221786801
09:57:26.848931,-1.5110675,5.7547383,7.550552,-0.28999972,-0.4729485,-0.31870955,-6.909798866770657,-36.77232122709587,11.316915676358386
09:57:26.860055,-1.4452649,5.680561,7.5978103,-0.35276428,-0.53433865,-0.29503924,-7.340948154825366,-36.29681370236334,10.770200868207532
09:57:26.872429,-1.302892,5.6392846,7.879565,-0.40300646,-0.5906893,-0.28770906,-7.988479116446547,-35.22581271974866,9.388947934055132
09:57:26.881385,-1.2233306,5.599205,8.005786,-0.44866732,-0.6690305,-0.3101577,-8.122863942140194,-34.65881481108381,8.687924638401704
09:57:26.893136,-1.4488541,5.732605,8.46102,-0.41919392,-0.6969767,-0.3206948,-7.310981553615581,-33.735434707000614,9.71700960385366
09:57:26.901618,-1.4626129,5.7266226,8.599206,-0.36879903,-0.72477025,-0.31565532,-6.381995144884276,-33.28566675015527,9.65288778792558
09:57:26.911317,-1.2215359,5.601598,8.635098,-0.29198498,-0.74553907,-0.32130566,-7.802797862538812,-32.71288367126342,8.051734352123681
09:57:26.920344,-1.0336994,5.549554,8.52802,-0.19608197,-0.7201889,-0.3426853,-8.936058580759097,-32.86307270092283,6.911227230080836
09:57:26.929451,-0.8979067,5.5651073,8.394022,-0.10735641,-0.68292725,-0.3672719,-8.6246164687585,-33.39381938056784,6.105699478805274
09:57:26.941138,-0.73818576,5.4723854,8.251051,-0.035276428,-0.63925165,-0.39750886,-9.213640883722999,-33.44861115808968,5.112394032433605
09:57:26.948963,-0.718445,5.4676,7.9830546,0.017256435,-0.5639647,-0.43477052,-8.672910175058723,-34.29961174753825,5.14255187894015
09:57:26.959735,-0.8021938,5.5423756,8.035697,0.05070032,-0.49432814,-0.4613424,-6.941348364320593,-34.46212243846037,5.700879716227319
09:57:26.970954,-0.81595254,5.5220366,8.172686,0.08979455,-0.46180052,-0.47126865,-6.543015147020034,-33.914013417945185,5.701458147872654
09:57:26.980976,-0.78424764,5.4616175,8.111669,0.12247488,-0.4718795,-0.47875154,-7.266759493834334,-33.829161977886116,5.522273684526071
09:57:26.991618,-0.8757731,5.476573,7.7964144,0.12491827,-0.49280104,-0.48531815,-6.008518266633863,-34.917252093804166,6.409181432215043
09:57:27.001971,-1.0271192,5.569295,7.652247,0.09575031,-0.5205946,-0.4845546,-4.5954831816129245,-35.80403604431443,7.6448070492999545
09:57:27.012195,-1.1036894,5.6464634,7.669595,0.06704049,-0.5402944,-0.4640912,-3.9186058853359604,-36.081102667996,8.188904187451401
09:57:27.022707,-0.9726824,5.631508,7.70788,0.04459185,-0.5592307,-0.44118443,-3.5486089884676693,-35.93715643123798,7.192322384712242
09:57:27.031792,-0.9391829,5.6997037,7.556534,0.03268033,-0.539989,-0.42545512,-3.290248545375474,-36.81542996604241,7.084818622270826
09:57:27.045941,-0.98943216,5.705087,7.555936,0.007941014,-0.52548134,-0.4086568,-2.996863959436512,-36.82056626829826,7.460300587929461
09:57:27.053761,-0.6843473,5.6961145,7.818548,-0.027488127,-0.5163186,-0.3891097,-5.24052368550799,-35.97078486761654,5.002276015087367
09:57:27.063601,-0.6843473,5.6961145,7.818548,-0.086129464,-0.5273139,-0.37582377,-4.356954192775862,-35.97078486761654,5.002276015087367
09:57:27.073031,-0.5940182,5.6524453,8.085946,-0.08383878,-0.53464407,-0.3733804,-3.84200702134156,-34.882933808319436,4.201575073120888
09:57:27.083247,-0.46181476,5.5944195,8.416156,-0.049173206,-0.5392254,-0.37826717,-4.367747599211775,-33.573234789685735,3.140807634873592
09:57:27.091762,-0.21834506,5.4753766,8.612367,-0.0061084726,-0.5401417,-0.38315395,-5.182181917165034,-32.4381290666159,1.4522803914964797
